timestamp,accelerometer_x,accelerometer_y,accelerometer_z,gyroscope_x,gyroscope_y,gyroscope_z
40.50670040026307,3.910860521636135e-35,-6.370027993923717e-35,9.8100004196167,-1.8703466366787325e-06,-1.061410671354679e-06,1.432077789687014e-10
40.541884899139404,-191983.4375,312703.5625,-3.8209457397460938,-1.2093649957023445e-06,8.158938413771466e-09,2.2603641181007106e-10
40.6183944940567,0.010102951899170876,-0.019948190078139305,16.253074645996094,-2.116208150937382e-07,-2.47363772132303e-07,1.3190670777873947e-11
40.67953489348292,-0.005051475949585438,0.009974095039069653,12.362129211425781,2.5378485091209768e-08,-1.2327514298249298e-07,-3.223860761680797e-11
40.717340495437384,-0.020102817565202713,0.019896648824214935,10.461410522460938,1.5988428003765875e-07,-7.729577333748239e-08,3.4576147500686716e-11
40.75206709653139,-0.00020617034169845283,0.03999946638941765,9.859100341796875,9.617481282475637e-07,3.459528272742318e-07,-4.6315229429438887e-11
40.78883729502559,-0.019999733194708824,-0.00010308517084922642,9.603144645690918,3.4970236129083787e-07,4.657524499407373e-08,-1.212681621787226e-10
40.824070893228054,0.02020590379834175,-0.03989638015627861,9.525473594665527,3.4652447311600554e-07,6.561407417393639e-08,3.9030237375392574e-11
40.85836689546704,0.00010308517084922642,-0.019999733194708824,9.49096393585205,4.0703810100239934e-07,9.76091598658968e-08,4.28337573743498e-12
40.8943478949368,-0.020412074401974678,0.07989584654569626,9.48617935180664,4.766072834172519e-07,1.0488576407396977e-07,-5.3955340195699364e-11
40.93418739363551,-0.010102951899170876,0.019948190078139305,9.51064682006836,-4.0537162249165704e-07,-2.502719382846408e-07,-4.905031242286029e-12
40.97113239392638,0.0301026850938797,-0.019845105707645416,9.601753234863281,4.874341357208323e-07,9.393060906859318e-08,-1.511865632686238e-11
41.00648079439998,-0.02020590379834175,0.03989638015627861,9.62043571472168,5.215179612605425e-07,9.315878202187378e-08,-9.47166789444509e-11
41.04142879322171,0.019999733194708824,0.00010308517084922642,9.644533157348633,-3.776348194151069e-07,-2.489711903308489e-07,6.841183175509968e-11
41.077683094888926,-0.040205635130405426,0.03979329764842987,9.666084289550781,-1.1874362826347351e-06,8.249012353189755e-07,8.449006771993339e-11
41.11807879433036,0.02020590379834175,-0.03989638015627861,9.729654312133789,4.1657446558929223e-07,1.4261402725423977e-07,7.186479189513761e-11
41.15558199584484,-0.009999866597354412,-5.154258542461321e-05,9.689972877502441,-1.6323522800121282e-07,-1.9626877190148662e-07,-4.04977162915543e-11
41.19178859516978,0.019896648824214935,0.020102817565202713,9.766839027404785,7.545012863374723e-07,1.4794922265082278e-07,-4.7092080235344724e-11
41.22761559486389,-0.02020590379834175,0.03989638015627861,9.76687240600586,7.74907789491408e-07,1.5727749769212096e-07,1.9414886365254347e-11
41.26439319550991,0.02020590379834175,-0.03989638015627861,9.767416000366211,-1.4240602297377336e-07,-2.1573255537532532e-07,2.3305413154872667e-11
41.301636796444654,-0.030308855697512627,0.059844572097063065,9.782270431518555,7.311705303436611e-07,1.1543136224645423e-07,4.7221365706562324e-11
41.33955089375377,-0.030205771327018738,0.03984483703970909,9.78810977935791,6.580721105819975e-07,9.524848110231687e-08,-1.28191013359924e-10
41.37683779373765,-0.009999866597354412,-5.154258542461321e-05,9.756831169128418,0.0,0.0,0.0
41.413394793868065,0.00010308517084922642,-0.019999733194708824,9.8100004196167,0.0,0.0,0.0
41.44940919429064,0.02030898816883564,-0.059896115213632584,9.8100004196167,0.0,0.0,0.0
41.48607449606061,0.0,0.0,9.8100004196167,0.0,0.0,0.0
41.52261759340763,-0.020102817565202713,0.019896648824214935,9.8100004196167,0.0,0.0,0.0
41.56240789592266,-0.02030898816883564,0.059896115213632584,9.8100004196167,0.0,0.0,0.0
41.603046894073486,0.030205771327018738,-0.03984483703970909,9.8100004196167,0.0,0.0,0.0
41.64244379475713,0.009999866597354412,5.154258542461321e-05,9.8100004196167,0.0,0.0,0.0
41.68129439651966,-0.020102817565202713,0.019896648824214935,9.8100004196167,0.0,0.0,0.0
41.7195746935904,0.02020590379834175,-0.03989638015627861,9.8100004196167,0.0,0.0,0.0
41.758251793682575,-0.010102951899170876,0.019948190078139305,9.8100004196167,0.0,0.0,0.0
41.79657529294491,-0.010206037200987339,0.03994792327284813,9.8100004196167,0.0,0.0,0.0
41.83294079452753,-0.010206037200987339,0.03994792327284813,9.8100004196167,0.0,0.0,0.0
41.8698819950223,0.019999733194708824,0.00010308517084922642,9.8100004196167,0.0,0.0,0.0
41.906580194830894,-0.02020590379834175,0.03989638015627861,9.8100004196167,0.0,0.0,0.0
41.94267859309912,-0.03999946638941765,-0.00020617034169845283,9.8100004196167,0.0,0.0,0.0
41.97939529642463,-0.040205635130405426,0.03979329764842987,9.8100004196167,0.0,0.0,0.0
42.01750819385052,-0.030205771327018738,0.03984483703970909,9.8100004196167,0.0,0.0,0.0
42.053587295114994,-0.02020590379834175,0.03989638015627861,9.8100004196167,0.0,0.0,0.0
42.09066969528794,0.030308855697512627,-0.059844572097063065,9.8100004196167,0.0,0.0,0.0
42.12638019397855,0.020102817565202713,-0.019896648824214935,9.8100004196167,0.0,0.0,0.0
42.164139196276665,-0.020102817565202713,0.019896648824214935,9.8100004196167,0.0,0.0,0.0
42.20028479397297,-0.060411542654037476,0.07968967407941818,9.8100004196167,0.0,0.0,0.0
42.23621869459748,-0.040205635130405426,0.03979329764842987,9.8100004196167,0.0,0.0,0.0
42.27332139387727,0.010102951899170876,-0.019948190078139305,9.8100004196167,0.0,0.0,0.0
42.31084379553795,-0.020102817565202713,0.019896648824214935,9.8100004196167,0.0,0.0,0.0
42.34909829497337,-0.009999866597354412,-5.154258542461321e-05,9.8100004196167,0.0,0.0,0.0
42.38565619289875,0.00010308517084922642,-0.019999733194708824,9.8100004196167,0.0,0.0,0.0
42.42111489549279,0.040308721363544464,-0.059793032705783844,9.8100004196167,0.0,0.0,0.0
42.45839969441295,-0.030308855697512627,0.059844572097063065,9.8100004196167,0.0,0.0,0.0
42.49571129307151,-0.020102817565202713,0.019896648824214935,9.8100004196167,0.0,0.0,0.0
42.532610796391964,-0.010102951899170876,0.019948190078139305,9.8100004196167,0.0,0.0,0.0
42.570505294948816,0.0,0.0,9.8100004196167,0.0,0.0,0.0
42.60630899295211,0.040308721363544464,-0.059793032705783844,9.8100004196167,0.0,0.0,0.0
42.64339619502425,0.010102951899170876,-0.019948190078139305,9.8100004196167,0.0,0.0,0.0
42.680271096527576,-0.030308855697512627,0.059844572097063065,9.8100004196167,0.0,0.0,0.0
42.717703994363546,-0.020102817565202713,0.019896648824214935,9.8100004196167,0.0,0.0,0.0
42.75530129298568,0.009896781295537949,0.020051276311278343,9.8100004196167,0.0,0.0,0.0
42.79230359569192,-0.020102817565202713,0.019896648824214935,9.8100004196167,0.0,0.0,0.0
42.82980069518089,0.010102951899170876,-0.019948190078139305,9.8100004196167,0.0,0.0,0.0
42.86575549468398,0.00010308517084922642,-0.019999733194708824,9.8100004196167,0.0,0.0,0.0
42.90210399404168,0.020102817565202713,-0.019896648824214935,9.8100004196167,0.0,0.0,0.0
42.94079529494047,-0.019999733194708824,-0.00010308517084922642,9.8100004196167,0.0,0.0,0.0
42.97912059351802,0.010206037200987339,-0.03994792327284813,9.8100004196167,0.0,0.0,0.0
43.017600394785404,-0.010102951899170876,0.019948190078139305,9.8100004196167,0.0,0.0,0.0
43.05539579316974,-0.009999866597354412,-5.154258542461321e-05,9.8100004196167,0.0,0.0,0.0
43.093176294118166,-0.040308721363544464,0.059793032705783844,9.8100004196167,0.0,0.0,0.0
43.129707396030426,0.030411941930651665,-0.07984430342912674,9.8100004196167,0.0,0.0,0.0
43.16516939550638,-0.020102817565202713,0.019896648824214935,9.8100004196167,0.0,0.0,0.0
43.20195369422436,-0.019999733194708824,-0.00010308517084922642,9.8100004196167,0.0,0.0,0.0
43.239058796316385,-0.05041167512536049,0.0797412171959877,9.8100004196167,0.0,0.0,0.0
43.27553789317608,-0.019999733194708824,-0.00010308517084922642,9.8100004196167,0.0,0.0,0.0
43.31135939434171,0.0,0.0,9.8100004196167,0.0,0.0,0.0
43.348167695105076,-0.020102817565202713,0.019896648824214935,9.8100004196167,0.0,0.0,0.0
43.38535949587822,0.009896781295537949,0.020051276311278343,9.8100004196167,0.0,0.0,0.0
43.42287679389119,-0.010102951899170876,0.019948190078139305,9.8100004196167,0.0,0.0,0.0
43.46059529483318,-0.00010308517084922642,0.019999733194708824,9.8100004196167,0.0,0.0,0.0
43.496693793684244,0.0,0.0,9.8100004196167,0.0,0.0,0.0
43.534502893686295,-0.00010308517084922642,0.019999733194708824,9.8100004196167,0.0,0.0,0.0
43.572279796004295,-0.02030898816883564,0.059896115213632584,9.8100004196167,0.0,0.0,0.0
43.61061379313469,-0.00010308517084922642,0.019999733194708824,9.8100004196167,0.0,0.0,0.0
43.64921809360385,-0.010206037200987339,0.03994792327284813,9.8100004196167,0.0,0.0,0.0
43.686632093042135,-0.02020590379834175,0.03989638015627861,9.8100004196167,0.0,0.0,0.0
43.72332639619708,-0.009999866597354412,-5.154258542461321e-05,9.8100004196167,0.0,0.0,0.0
43.75890829414129,-0.040308721363544464,0.059793032705783844,9.8100004196167,0.0,0.0,0.0
43.796056393533945,0.0301026850938797,-0.019845105707645416,9.8100004196167,0.0,0.0,0.0
43.83296509459615,-0.00010308517084922642,0.019999733194708824,9.8100004196167,0.0,0.0,0.0
43.870448496192694,-0.00020617034169845283,0.03999946638941765,9.8100004196167,0.0,0.0,0.0
43.907594095915556,-0.010206037200987339,0.03994792327284813,9.8100004196167,0.0,0.0,0.0
43.94328209385276,0.040308721363544464,-0.059793032705783844,9.8100004196167,0.0,0.0,0.0
43.980077393352985,-0.020102817565202713,0.019896648824214935,9.8100004196167,0.0,0.0,0.0
44.01760959625244,0.02020590379834175,-0.03989638015627861,9.8100004196167,0.0,0.0,0.0
44.05611089617014,0.020102817565202713,-0.019896648824214935,9.8100004196167,0.0,0.0,0.0
44.09605939313769,0.00010308517084922642,-0.019999733194708824,9.8100004196167,0.0,0.0,0.0
44.134799994528294,-0.010206037200987339,0.03994792327284813,9.8100004196167,0.0,0.0,0.0
44.173254795372486,-0.010102951899170876,0.019948190078139305,9.8100004196167,0.0,0.0,0.0
44.21157409623265,-0.02020590379834175,0.03989638015627861,9.8100004196167,0.0,0.0,0.0
44.250118393450975,-0.02030898816883564,0.059896115213632584,9.8100004196167,0.0,0.0,0.0
44.288811195641756,0.009999866597354412,5.154258542461321e-05,9.8100004196167,0.0,0.0,0.0
44.326076593250036,0.0,0.0,9.8100004196167,0.0,0.0,0.0
44.366000194102526,0.00010308517084922642,-0.019999733194708824,9.8100004196167,0.0,0.0,0.0
44.40601929649711,0.019999733194708824,0.00010308517084922642,9.8100004196167,0.0,0.0,0.0
44.44508719444275,-0.009999866597354412,-5.154258542461321e-05,9.8100004196167,0.0,0.0,0.0
44.48422349616885,-0.009999866597354412,-5.154258542461321e-05,9.70630168914795,2.2150875622628519e-07,-1.9069801737714442e-08,5.931088953303743e-13
44.52170159295201,0.030205771327018738,-0.03984483703970909,9.897756576538086,-1.5814948710612953e-06,-5.95303752959353e-08,1.99873589901145e-11
44.560057796537876,-0.040308721363544464,0.059793032705783844,9.839323997497559,7.852114549677935e-07,2.543081336625619e-07,6.738494484626045e-11
44.59987689554691,-0.030205771327018738,0.03984483703970909,9.819140434265137,-8.424276529694907e-07,-4.920100309391273e-07,9.139196344154499e-11
44.63886349648237,-0.009999866597354412,-5.154258542461321e-05,9.82641315460205,6.50221181786037e-07,1.9222737535073975e-07,7.203741769767902e-11
44.677246395498514,0.030205771327018738,-0.03984483703970909,9.813456535339355,-2.4653652985762164e-07,-1.7982632982693758e-07,-2.86245055436396e-11
44.716067895293236,-0.02020590379834175,0.03989638015627861,9.801653861999512,6.65170830416173e-07,1.7408537189567141e-07,2.063810233821073e-11
44.75569349527359,-0.020102817565202713,0.019896648824214935,9.800427436828613,-2.634326392580988e-07,-2.1748157053025352e-07,1.9665095940535338e-11
44.79588009417057,0.020102817565202713,-0.019896648824214935,9.850613594055176,-3.062149573906936e-07,-2.0920253973599756e-07,-9.300475320439539e-12
44.835484594106674,0.020102817565202713,-0.019896648824214935,9.741575241088867,5.72798626308213e-07,1.6251631507202546e-07,6.148594133836838e-11
44.87435009330511,0.02020590379834175,-0.03989638015627861,9.822036743164062,-1.1766641137000988e-06,1.765459387570445e-07,1.5535615849326945e-10
44.91479579359293,-0.00010308517084922642,0.019999733194708824,9.84781265258789,-9.517722219243296e-07,-5.401508360591833e-07,3.202649950795333e-11
44.9542043954134,0.040308721363544464,-0.059793032705783844,9.749555587768555,-2.8717639111164317e-07,-1.904959816556584e-07,-2.074194427326148e-10
44.991706393659115,0.010206037200987339,-0.03994792327284813,9.832573890686035,6.372794700837403e-07,1.624654970555639e-07,2.174834097534717e-12
45.032805893570185,0.030308855697512627,-0.059844572097063065,9.835186004638672,5.31071862042154e-07,1.5073116799158015e-07,3.568047246549355e-11
45.07325519621372,-0.00010308517084922642,0.019999733194708824,9.798086166381836,-3.7769675031995575e-07,-1.9358841996108822e-07,2.5165994288478544e-11
45.11085559427738,-0.00020617034169845283,0.03999946638941765,9.76998519897461,5.474365707414108e-07,1.55436808313425e-07,1.5745417122903227e-12
45.149089094251394,-0.030411941930651665,0.07984430342912674,9.816568374633789,-3.2835080787663173e-07,-2.1334817290608044e-07,1.2309861463499772e-11
45.18883879482746,-0.030205771327018738,0.03984483703970909,9.808724403381348,5.336364097274782e-07,1.2367046053896047e-07,4.545341880657361e-11
45.22751609608531,0.00010308517084922642,-0.019999733194708824,9.827401161193848,5.430924261418113e-07,1.2775693392086396e-07,-2.5273966947070292e-11
45.266539093106985,-0.040308721363544464,0.059793032705783844,9.809043884277344,5.633160640172719e-07,1.415630492829223e-07,-6.392014695322246e-11
45.30594849586487,0.02030898816883564,-0.059896115213632584,9.809417724609375,-3.5936164977101726e-07,-1.9445428733888548e-07,8.17818174292384e-11
45.34670329466462,-0.009999866597354412,-5.154258542461321e-05,9.850752830505371,-3.663391225927626e-07,-1.9331410783252068e-07,3.2743047856387264e-11
45.38559699431062,0.0,0.0,9.753867149353027,-3.8046152894821716e-07,-1.9195454115106259e-07,6.508178718167557e-11
45.42474089562893,-0.020102817565202713,0.019896648824214935,9.816452980041504,-3.777911388169741e-07,-1.956596520358289e-07,-1.3252302033528451e-11
45.46460039541125,-0.010102951899170876,0.019948190078139305,9.810937881469727,-3.279461964211805e-07,-1.9698943276580394e-07,5.4567943913452766e-11
45.50456319376826,-0.010102951899170876,0.019948190078139305,9.814927101135254,4.846529577662295e-07,1.5490280702579184e-07,-5.264529784332339e-11
45.545182794332504,0.010102951899170876,-0.019948190078139305,9.855849266052246,-3.939019279641798e-07,-1.9922121907711698e-07,-3.3505927199417584e-11
45.58546659350395,0.02030898816883564,-0.059896115213632584,9.789955139160156,5.252404662314802e-07,1.5279097453912982e-07,-3.456100683418839e-11
45.62371149286628,-0.0301026850938797,0.019845105707645416,9.762418746948242,-1.1821566658909433e-06,1.625816850037154e-07,1.2372036728436342e-10
45.66342809423804,-0.040308721363544464,0.059793032705783844,9.811968803405762,5.965298441878986e-07,1.584971585089079e-07,-2.0287903301774435e-11
45.70180769637227,-0.009896781295537949,-0.020051276311278343,9.830551147460938,-2.681522630609834e-07,-1.976459174102274e-07,-3.358307729128818e-11
45.74016339331865,-0.009999866597354412,-5.154258542461321e-05,9.812409400939941,-1.9305592502405489e-07,-1.6908616373711993e-07,9.612936835434738e-11
45.7779206931591,-0.0404118075966835,0.07979276031255722,9.81502914428711,7.642714194844302e-07,1.960499105280178e-07,-3.228177794523113e-11
45.81683739647269,0.00010308517084922642,-0.019999733194708824,9.801084518432617,7.73097440287529e-07,2.350318908383997e-07,2.7590169732194525e-13
45.85482869297266,1.0305527448654175,-0.03468874841928482,9.810443878173828,5.629583483823808e-07,-0.00392073392868042,-3.3732751035131514e-05
45.8952784948051,11.773919105529785,-0.01930236630141735,9.772690773010254,-3.799189869369002e-07,-0.00991116650402546,-9.703508112579584e-06
45.93409199640155,12.357364654541016,0.0236944742500782,9.734160423278809,-5.609838922282506e-07,-0.009075954556465149,-1.1803331290138885e-05
45.97380809485912,9.490737915039062,-0.07110163569450378,9.824548721313477,-8.506618200954108e-07,-0.00617175130173564,-1.1076650480390526e-05
46.01536339521408,7.352158069610596,-0.0021369033493101597,9.871524810791016,-4.589968511936604e-07,-0.00313307112082839,-1.1376190741430037e-05
46.05303219333291,6.102416038513184,0.051417555660009384,9.782343864440918,1.018791522255924e-06,-0.0010573520557954907,-7.950411600177176e-06
46.092375695705414,4.963116645812988,-0.0744621679186821,9.812981605529785,1.3710064195038285e-06,0.00043417399865575135,-6.108448360464536e-06
46.132209695875645,4.242314338684082,0.0018244014354422688,9.819682121276855,-9.962122504703075e-08,0.0013396168360486627,-7.096521585481241e-06
46.17284249514341,3.591820001602173,-0.021527137607336044,9.859036445617676,1.1742196193154086e-07,0.0017960614059120417,-9.370824045618065e-06
46.21165889501572,3.3705532550811768,0.05733818560838699,9.753235816955566,-1.1160645954078063e-06,0.001966264797374606,-1.1446099961176515e-05
46.251451194286346,3.050474166870117,-0.06431136280298233,9.809614181518555,5.817118449158443e-07,0.0019355214899405837,-4.739857104141265e-06
46.290049593895674,2.8294763565063477,-0.005447249859571457,9.822480201721191,9.442520649827202e-07,0.0018027412006631494,-2.60287606579368e-06
46.32955699414015,2.738697052001953,0.014087975956499577,9.800958633422852,-2.637658269577514e-07,0.0016233971109613776,-5.962477644061437e-06
46.36983589455485,2.5581541061401367,0.013159026391804218,9.850926399230957,-3.754096837838006e-07,0.0014092522906139493,-6.442683115892578e-06
46.40814669430256,2.607788324356079,-0.026582282036542892,9.750550270080566,1.005057242764451e-06,0.0012342509580776095,-3.009664396813605e-06
46.44713209569454,2.527097463607788,0.03300407901406288,9.808995246887207,4.909928463803226e-09,0.001052522799000144,-5.140094799571671e-06
46.486959494650364,2.466726541519165,0.03269565477967262,9.807785987854004,4.675150364619185e-07,0.0008870488381944597,-1.0512994776945561e-05
46.527378395199776,2.3772737979888916,-0.12776559591293335,9.8562650680542,7.85975018402496e-08,0.0007328521460294724,-7.569378340122057e-06
46.5735302940011,2.415783643722534,0.09243924915790558,9.766193389892578,-4.017609285256185e-07,0.0005987170152366161,-1.1458879271231126e-05
46.614205196499825,2.3663361072540283,-0.047815579921007156,9.832348823547363,-1.0894760293922445e-07,0.0004982163081876934,-5.2470854825514834e-06
46.652317993342876,2.366023063659668,-0.027815861627459526,9.764138221740723,-6.383741038007429e-07,0.0004239899863023311,-7.199391347967321e-06
46.692530896514654,2.3155155181884766,0.05192594602704048,9.852361679077148,-7.551447538389766e-07,0.00034676562063395977,-8.972170689958148e-06
46.731135595589876,2.315540075302124,0.01192788127809763,9.759974479675293,9.724042229208862e-07,0.00034166747354902327,-8.0604086178937e-06
46.771324295550585,2.1453616619110107,0.031050710007548332,9.858962059020996,-7.872641276662762e-07,0.0003338117676321417,-7.97559641796397e-06
46.81049629300833,2.2955994606018066,-0.04817231744527817,9.756242752075195,-5.509236302714271e-07,0.0002824772091116756,-8.113458534353413e-06
46.84896199405193,2.1551218032836914,0.03110472299158573,9.828287124633789,-8.083700890892942e-07,0.0003010263026226312,-8.15446037449874e-06
46.888172794133425,1.9847736358642578,0.07022707909345627,9.811060905456543,-8.405635867347883e-07,0.0003616402973420918,-8.168010936060455e-06
46.92737349495292,1.875144362449646,-0.030338935554027557,9.815431594848633,-8.69537927883357e-07,0.00042435905197635293,-9.570202564646024e-06
46.96650159358978,1.68474280834198,0.00867925863713026,9.81398868560791,4.1821579088718863e-07,0.0005636125570163131,-3.0065277769608656e-06
47.00551799312234,1.4845060110092163,0.00764601631090045,9.812283515930176,-1.8938099799470365e-07,0.0006320237880572677,-6.246566954359878e-06
47.044062696397305,1.4743742942810059,-0.012404734268784523,9.81246280670166,7.92087675449693e-08,0.0006018101121298969,-7.652959538972937e-06
47.0830465964973,1.323937177658081,0.026819633319973946,9.804685592651367,6.587442271666077e-07,0.0006147634121589363,-5.62800960324239e-06
47.12214449420571,1.2037914991378784,0.006200513336807489,9.809591293334961,7.185075787674577e-07,0.0006856181425973773,-8.930977855925448e-06
47.160688295960426,0.9939370155334473,-0.07488326728343964,9.814192771911621,-9.116693036048673e-07,0.0007411239203065634,-1.2572166269819718e-05
47.20111509412527,0.8734502196311951,-0.03550352901220322,9.84327507019043,-1.1692671932905796e-06,0.0007206176524050534,-1.0176067917200271e-05
47.24237809330225,0.7627393007278442,0.043926920741796494,9.786294937133789,-1.1711195213592873e-07,0.0006825508899055421,-4.906748927169247e-06
47.28235309571028,0.7328871488571167,-0.036226995289325714,9.760661125183105,-1.2927952184327296e-06,0.0006368425092659891,-7.028449090284994e-06
47.321354895830154,0.6626828908920288,-0.03658853843808174,9.832621574401855,-4.5759293243463617e-07,0.0005582809681072831,-7.50776962377131e-06
47.36045599356294,0.6423730254173279,-0.01669200509786606,9.815393447875977,1.6209236264330684e-07,0.0005184917245060205,-4.338286998972762e-06
47.39932369440794,0.5019773840904236,0.02258361503481865,9.815367698669434,-2.7175093464393285e-07,0.0004873433499597013,-6.812384981458308e-06
47.438652995973825,0.4818994104862213,0.0024806817527860403,9.808111190795898,2.0205897044434096e-07,0.00046120010665617883,-7.3552728281356394e-06
47.47759639471769,0.38162896037101746,0.021963555365800858,9.814549446105957,-1.1077667068093433e-06,0.00043199342326261103,-7.446813469869085e-06
47.51768859475851,0.3817843496799469,-0.038035620003938675,9.848564147949219,2.3106829871721857e-07,0.00040196484769694507,-4.175851699983468e-06
47.555819395929575,0.3012111783027649,0.041549790650606155,9.753583908081055,5.305730610416504e-07,0.000377230579033494,-6.6436955421522725e-06
47.596438996493816,0.27129125595092773,0.0013954818714410067,9.847875595092773,4.617460263034445e-07,0.0003449044597800821,-3.930427283194149e-06
47.63437309488654,0.24136537313461304,-0.038759008049964905,9.765198707580566,6.883394689793931e-07,0.0003189193375874311,-6.553440925927134e-06
47.67459799349308,0.18084537982940674,0.04092960059642792,9.851698875427246,-3.924137672584038e-07,0.00028782052686437964,-1.1977993381151464e-05
47.714278396219015,0.20114031434059143,-0.03896600380539894,9.755288124084473,-7.544061304542993e-07,0.00027158489683642983,-9.893979949993081e-06
47.7535664960742,0.15084046125411987,0.0007750960648991168,9.829142570495605,9.504099125479115e-07,0.00025199982337653637,-4.651088147511473e-06
47.79269369319081,0.11085344851016998,-0.01943138986825943,9.819287300109863,6.659612381554325e-07,0.00022308711777441204,-6.711198238917859e-06
47.8318157941103,0.12067108601331711,0.0006200502393767238,9.813928604125977,-4.011498617728648e-07,0.00019575710757635534,-8.824747055768967e-06
47.872069995850325,0.11080904304981232,-0.03943108394742012,9.851276397705078,4.3210724243181176e-07,0.00017245578055735677,-7.658902177354321e-06
47.9115485958755,0.04012133926153183,0.08020526170730591,9.7479829788208,5.259263389234548e-07,0.0001509301655460149,-7.392796305794036e-06
47.94972149655223,0.050592586398124695,-0.019741659983992577,9.829315185546875,-4.0992850358634314e-07,0.00012725856504403055,-8.805806828604545e-06
47.988198295235634,0.1005476862192154,-0.019483093172311783,9.809857368469238,-7.628968319295382e-07,0.00010966543050017208,-1.4039537745702546e-05
48.02812609449029,0.07040455937385559,0.00036153418477624655,9.802669525146484,1.0796606630947281e-07,9.868655615719035e-05,-1.034157867252361e-05
48.06575509533286,0.020475901663303375,-0.019896646961569786,9.831028938293457,3.3951255318243057e-07,8.914780482882634e-05,-1.684562676018686e-07
48.10278249531984,0.08065202087163925,-0.05958548188209534,9.809250831604004,-2.239422869365626e-08,7.766396447550505e-05,-4.0463269215251785e-06
48.14238739386201,0.050106242299079895,0.040257953107357025,9.78860855102539,4.098972397059697e-07,6.794479850213975e-05,-5.0496473704697564e-06
48.180759593844414,0.03039468638598919,-0.019844766706228256,9.823688507080078,3.263112375861965e-07,5.854772825841792e-05,-5.276614501781296e-06
48.22012699395418,0.04037405923008919,-0.019793163985013962,9.802587509155273,-6.12809799349634e-07,5.0597132940310985e-05,-5.314940153766656e-06
48.25812699645758,0.030374718829989433,-0.019844910129904747,9.821553230285645,2.4301141365867807e-07,4.394815186969936e-05,-5.300806606101105e-06
48.297143295407295,0.00016755214892327785,0.019999319687485695,9.800285339355469,1.5366338175226701e-06,3.769094473682344e-05,-2.0017200768052135e-06
48.336020693182945,0.04016735032200813,0.020206298679113388,9.812359809875488,-4.49720630513184e-07,3.3539585274411365e-05,-4.4936846279597376e-06
48.37429969385266,0.030374515801668167,-0.019844908267259598,9.814237594604492,2.696338583518809e-07,2.9992192139616236e-05,-5.079723450762685e-06
48.41337859630585,0.020167356356978416,0.020102810114622116,9.8029203414917,-7.474141057173256e-07,2.5946894311346114e-05,-5.208937182032969e-06
48.45341819524765,0.00027246688841842115,-4.138973395129142e-07,9.851801872253418,9.863673255949834e-08,2.167284401366487e-05,-5.232558578427415e-06
48.491344194859266,0.02006254345178604,0.04010254517197609,9.755085945129395,6.891621637805656e-07,2.002470318984706e-05,-1.980601155082695e-06
48.53091099485755,-0.040038738399744034,0.05979180335998535,9.805709838867188,-6.590594239241909e-07,1.8193986761616543e-05,-9.26409393287031e-06
48.57070039585233,-0.009935315698385239,0.03994730859994888,9.817935943603516,-4.2456542814761633e-07,1.7429334548069164e-05,-2.8235908757778816e-06
48.608252596110106,0.030374975875020027,-0.019844910129904747,9.830881118774414,-6.912944172654534e-07,1.5784498827997595e-05,-4.593678568198811e-06
48.64748269319534,-0.010142928920686245,0.07994677126407623,9.795032501220703,1.4249139894673135e-06,1.3772900274489075e-05,-9.814035365707241e-06
48.68404619395733,0.0608920156955719,-0.11968833208084106,9.830678939819336,4.478561663745495e-07,1.2307636097830255e-05,-3.182555474268156e-06
48.72203289344907,0.030580921098589897,-0.05984437093138695,9.793476104736328,-6.300273298620596e-07,1.119229546020506e-05,-4.671898295782739e-06
48.761414494365454,0.02996020019054413,0.0601540207862854,9.801401138305664,2.1213226375493832e-07,9.370541192765813e-06,-5.028154191677459e-06
48.80146749317646,0.010375961661338806,-0.019948402419686317,9.856823921203613,2.15550244320184e-07,7.069801085890504e-06,-5.091190814709989e-06
48.838744696229696,-0.04983289912343025,0.019740596413612366,9.75973892211914,-6.872293738524604e-07,6.4488608586543705e-06,-5.102039722260088e-06
48.87930419296026,-0.009934654459357262,0.039947304874658585,9.841842651367188,-6.652610977653239e-07,4.957541477779159e-06,-5.088116267870646e-06
48.919313196092844,0.04027051851153374,0.00020656817650888115,9.800774574279785,2.3839088214572257e-07,5.1411684580671135e-06,-5.07680169903324e-06
48.95742179453373,-0.019729601219296455,-0.00010390031820861623,9.767363548278809,2.5997849206760293e-07,4.204915057925973e-06,-5.05539992445847e-06
48.99760139361024,0.02016889490187168,0.020102808251976967,9.858539581298828,9.14755162284564e-07,4.089742560609011e-06,-5.046770183980698e-06
49.03549899533391,-0.019419124349951744,-0.060103096067905426,9.767596244812012,2.3797747417120263e-07,3.5299440241942648e-06,-5.022154255129863e-06
49.07239129394293,0.040374793112277985,-0.01979316584765911,9.829086303710938,-9.616296665626578e-07,2.9017260203545447e-06,-9.6570392997819e-06
49.11261459439993,0.00027216054149903357,-4.1343213297295733e-07,9.840725898742676,-1.3656538158102194e-06,2.3583424990647472e-06,-7.558589913969627e-06
49.15074959397316,-0.019626202061772346,-0.020103631541132927,9.764055252075195,6.026928076607874e-07,1.6838330338941887e-06,-5.622661774395965e-06
49.188622295856476,0.030478259548544884,-0.03984464332461357,9.823402404785156,-7.300040465452184e-07,1.8257778719998896e-06,-9.835799573920667e-06
49.22605639323592,-0.019935157150030136,0.03989556059241295,9.818833351135254,3.82457557179805e-07,1.7333015875919955e-06,-7.649063263670541e-06
49.265459794551134,-0.049831803888082504,0.019740596413612366,9.799261093139648,8.269956879303209e-07,1.7691310176815023e-06,-5.581724508374464e-06
49.30297959595919,6.488063809229061e-05,0.03999904915690422,9.829878807067871,3.0751249369131983e-07,4.064095833200554e-07,-5.106463959236862e-06
49.34168849512935,-0.020039167255163193,0.05989529564976692,9.800003051757812,-8.409803058384568e-07,1.131347971750074e-06,-6.453962214436615e-06
49.38020849600434,0.010271277278661728,5.1332688599359244e-05,9.813654899597168,-1.239594293878099e-08,7.502370067413722e-07,-2.04036177819944e-06
49.418056193739176,-0.00962492823600769,-0.02005188912153244,9.81495475769043,-3.91594682014329e-07,6.265544811867585e-07,-8.917639206629246e-06
49.455942295491695,0.04016721621155739,0.020206300541758537,9.807600021362305,-2.0153625257535168e-07,2.051233494171356e-08,-7.362907581409672e-06
49.49550009518862,-0.009728888049721718,-5.2156618039589375e-05,9.797971725463867,-3.611912973155995e-07,7.817814093868947e-07,-6.970237791392719e-06
49.535209093242884,0.01016779150813818,0.02005106396973133,9.813813209533691,5.496959829542902e-07,1.097735776056652e-06,-6.891975317557808e-06
49.57450659573078,-0.00952141359448433,-0.040051620453596115,9.815851211547852,7.944195203890558e-07,6.069376468076371e-07,-1.0161488717130851e-05
49.61209859326482,0.010374980047345161,-0.01994839869439602,9.821333885192871,-3.341518493016338e-07,3.694114525387704e-07,-7.673556865483988e-06
49.64961659535766,-0.03983179107308388,0.019792340695858,9.804585456848145,7.503727488256118e-07,9.629436448221895e-08,-2.3680463527853135e-06
49.689605094492435,0.01006365567445755,0.040050797164440155,9.790443420410156,4.734996252864221e-07,5.198871804168448e-07,-4.317407729104161e-06
49.728806495666504,0.02037484385073185,-0.019896654412150383,9.821212768554688,-8.627208103462181e-07,5.107835931994487e-07,-6.238112291612197e-06
49.76865689456463,-0.04983160272240639,0.019740594550967216,9.806622505187988,8.326755960297305e-07,8.337032113558962e-07,-5.179643267183565e-06
49.8070332929492,-0.009624728001654148,-0.02005188912153244,9.822193145751953,-7.3022351898544e-07,2.334230364553491e-09,-9.660119758336805e-06
49.846860095858574,0.03016705811023712,0.0201545562595129,9.796992301940918,-3.4066647458530497e-07,2.2970289137447253e-07,-7.445899882441154e-06
49.88633409515023,-0.009728414937853813,-5.215733835939318e-05,9.81505012512207,-1.533093865191404e-07,1.1819749801134094e-07,-1.0241030395263806e-05
49.925731994211674,0.010374687612056732,-0.01994839869439602,9.810761451721191,3.941549095998198e-07,3.196776958702685e-07,-7.585261300846469e-06
49.96538769453764,0.02047797106206417,-0.03989638760685921,9.808143615722656,-9.692535059002694e-07,5.263265734356537e-07,-6.963481155253248e-06
50.005527693778276,0.030375612899661064,-0.019844911992549896,9.853885650634766,1.4044398533030744e-08,-8.998905087764797e-08,-2.003369672820554e-06
50.045589193701744,0.0002706859668251127,-4.111920475224906e-07,9.787407875061035,-3.4959316508320626e-07,1.562682783173841e-08,-4.170857209828682e-06
50.08490389585495,6.282024696702138e-05,0.03999905660748482,9.755379676818848,-5.721385036849824e-07,2.076809977324956e-07,-6.145483894215431e-06
50.12487709522247,0.03047819994390011,-0.03984464332461357,9.82122802734375,1.9262884620729892e-07,-1.839197794062386e-09,-5.112467533763265e-06
50.16388279572129,0.020375022664666176,-0.019896654412150383,9.827727317810059,-1.9081648261476403e-08,6.953291631361935e-08,-4.865072241955204e-06
50.203357093036175,0.020478028804063797,-0.03989638760685921,9.810236930847168,-3.045044536520436e-07,1.6895050691800861e-07,-6.298852440522751e-06
50.241528894752264,0.03047821670770645,-0.03984464332461357,9.821891784667969,-1.8236111998248816e-07,-4.6843248924233194e-07,-6.6215502556588035e-06
50.279451694339514,-0.039728179574012756,-0.00020739203318953514,9.808988571166992,-2.1301399044659775e-07,3.0395455041798414e-07,-6.7074083744955715e-06
50.31814869493246,0.030063720420002937,0.040154289454221725,9.802474975585938,-1.9349880631125416e-07,4.1013453255800414e-07,-6.722589660057565e-06
50.3559794947505,-0.05962421000003815,-0.02031061425805092,9.81675910949707,-1.0955520792776952e-06,1.4130799286249385e-07,-6.730469522153726e-06
50.394724294543266,0.010374438017606735,-0.01994839869439602,9.801733016967773,-1.811103800264391e-07,5.733667194363079e-07,-6.7239379859529436e-06
50.43346869572997,0.03058142587542534,-0.059844374656677246,9.811702728271484,-1.2587477726810903e-07,2.8926967843290186e-07,-9.990817488869652e-06
50.4719447940588,0.010271251201629639,5.133272861712612e-05,9.812710762023926,3.1304401204579335e-07,3.469608884643094e-07,-7.503102096961811e-06
50.5120740942657,-0.01962393894791603,-0.020103635266423225,9.845898628234863,1.4359716260514688e-06,-3.713462888299546e-07,-2.086826953018317e-06
50.63799459859729,-12.06994342803955,0.010042423382401466,9.785548210144043,-6.867130082355288e-07,4.783993290402577e-07,-4.657654244510923e-06
50.67634369805455,12.20547103881836,-0.006844720803201199,9.819915771484375,-5.040116093368852e-07,1.1028271273971768e-07,1.9225139169520844e-07
50.71502769738436,-0.019935525953769684,0.03989556431770325,9.805493354797363,3.128519381334627e-07,8.347695370503061e-07,-3.538306373229716e-06
50.755898397415876,-0.019727494567632675,-0.00010390351235400885,9.84349250793457,-9.347349987365305e-07,-2.5408834858353657e-07,-1.4143315638648346e-05
50.796353098005056,0.030166953802108765,0.020154554396867752,9.793169021606445,-6.65137747546396e-07,4.2028790403492167e-07,-2.611887339298846e-06
50.8341866992414,-0.00962624978274107,-0.02005188725888729,9.767162322998047,5.854634537172387e-07,-2.177873312803058e-07,-4.912335953122238e-06
50.87396829947829,-0.01972847245633602,-0.00010390202805865556,9.80817985534668,2.5822150746535044e-06,5.209438995734672e-07,2.1585748982033692e-05
50.91206029802561,6.499746086774394e-05,0.03999904915690422,9.834102630615234,2.628147058203467e-06,1.2355322098756005e-07,3.259574805269949e-05
50.95009529963136,-0.019521381705999374,-0.04010336846113205,9.812158584594727,1.1517138887029432e-07,-2.78016869970088e-07,2.0804980522370897e-05
50.99026459828019,-0.0399341844022274,0.03979206830263138,9.84424114227295,9.880266134132398e-07,-1.6306579198044346e-08,3.1584404496243224e-05
51.02782679721713,0.04047633707523346,-0.03979254886507988,9.761070251464844,2.539221213737619e-06,-4.0169896919906023e-07,5.18242632097099e-05
51.067039396613836,0.010064254514873028,0.04005116969347,9.80594539642334,4.410332621773705e-06,-5.385494272758251e-09,8.214683475671336e-05
51.10580809786916,-0.009624883532524109,-0.020051397383213043,9.822352409362793,3.7139714095246745e-06,-3.3498875495752145e-07,0.00010679660044843331
51.1460132971406,-0.009830632247030735,0.019948121160268784,9.851485252380371,6.957427103770897e-06,-4.331749536845564e-08,0.0001512218441348523
51.1857592985034,0.00026961538242176175,5.19247078045737e-06,9.748698234558105,7.824349268048536e-06,7.417764891215484e-07,0.0002290822594659403
51.22702919691801,-0.00962447002530098,-0.020030062645673752,9.861239433288574,3.432621815591119e-05,2.433854717764916e-08,0.0005498649552464485
51.26638279855251,-0.019627513363957405,-0.020076030865311623,9.76036548614502,3.1869094527792186e-06,9.85965016297996e-08,0.00045777251943945885
51.30470069870353,0.04047510027885437,-0.03976951912045479,9.828998565673828,5.708911885449197e-06,-2.222357693426602e-07,0.0005267131491564214
51.34473309665918,-0.03962593153119087,-0.020154820755124092,9.849681854248047,5.637721551465802e-05,-2.993483576574363e-07,0.0010861087357625365
51.382818799465895,0.0200688187032938,0.040151871740818024,9.757955551147461,7.182865374488756e-06,6.214065706444671e-08,0.0009490359225310385
51.42266809940338,0.01017181109637022,0.020122535526752472,9.807390213012695,5.682401388185099e-05,-6.123459002083109e-07,0.0015319408848881721
51.46242089942098,7.590254972456023e-05,0.04009891673922539,9.821666717529297,5.5322310799965635e-05,1.2496913370796392e-07,0.0019112094305455685
51.49997179955244,0.020271647721529007,0.0002166761114494875,9.830573081970215,5.194624827709049e-05,1.0216101742344108e-07,0.0022400319576263428
51.5377697981894,-0.039823152124881744,0.019930388778448105,9.80384635925293,-2.1679950805264525e-05,7.506398702616934e-08,0.0018978225998580456
51.57644769921899,0.00017836052575148642,0.020145975053310394,9.802454948425293,7.812769035808742e-05,-1.5107342221654108e-07,0.0028372514061629772
51.616051100194454,0.020361661911010742,-0.019757656380534172,9.80574893951416,-8.75339173944667e-06,2.1974435071570042e-07,0.0025253556668758392
51.656104899942875,0.06044907495379448,-0.03957653045654297,9.857203483581543,9.780258551472798e-06,1.781424856517333e-07,0.0027456951793283224
51.694805797189474,1.2979572602489498e-05,0.06020718812942505,9.750486373901367,0.00014640080917160958,8.118257142086804e-07,0.004228303208947182
51.73407869786024,-0.0601370632648468,0.10002035647630692,9.814703941345215,0.0001274647074751556,-8.078337287997783e-08,0.0049912999384105206
51.77151149883866,0.06019298732280731,0.020507222041487694,9.828917503356934,-2.0619883798644878e-05,1.3321366054697137e-07,0.004405534826219082
51.808477997779846,0.0004213062347844243,-0.039727985858917236,9.811007499694824,3.6829674172622617e-06,-2.1024794705226668e-07,0.004660397302359343
51.84768199920654,-0.04015510529279709,0.12014405429363251,9.792722702026367,3.816394746536389e-05,2.5285410742981185e-07,0.00517180236056447
51.885025300085545,-0.019926097244024277,0.06029485911130905,9.827849388122559,0.00022606948914472014,4.029677427297429e-07,0.00730688264593482
51.924215998500586,-0.019850127398967743,0.04033054783940315,9.795193672180176,2.7400212275097147e-05,2.743088884926692e-07,0.006811933591961861
51.96381829679012,0.050109464675188065,0.06060487776994705,9.81166934967041,0.00020979918190278113,9.359492878502351e-07,0.008983515202999115
52.0032253973186,0.010177039541304111,0.04051489755511284,9.81503963470459,-1.4129373084870167e-06,4.087149818587932e-07,0.008340244181454182
52.04279799759388,-0.01992454193532467,0.10053018480539322,9.810415267944336,0.0002170631050830707,1.9188095734534727e-07,0.010754182003438473
52.08190869912505,-0.029915614053606987,0.12053855508565903,9.814321517944336,-9.44933435675921e-06,2.652286639204249e-07,0.010031516663730145
52.11987970024347,0.020205002278089523,0.06068091094493866,9.816356658935547,0.00022826074564363807,1.2276555025891867e-06,0.012561742216348648
52.158433597534895,0.060258183628320694,0.020717307925224304,9.801468849182129,-5.6592766668472905e-06,8.634806363261305e-07,0.01184994075447321
52.19718049839139,0.0002610958181321621,0.06068957969546318,9.808104515075684,2.1655168893630616e-05,6.404733312592725e-07,0.012392875738441944
52.234448697417974,-0.05966789275407791,0.16081246733665466,9.819798469543457,0.00030966682243160903,2.171075266232947e-06,0.01554992888122797
52.27357539907098,-0.019632501527667046,0.10084343701601028,9.793269157409668,2.8066606319043785e-05,1.4049195442566997e-06,0.01484511699527502
52.311291597783566,-0.019604893401265144,0.08087307959794998,9.822508811950684,3.9084341551642865e-05,1.200720134875155e-06,0.015444116666913033
52.3499963991344,0.02067352831363678,0.180910125374794,9.800875663757324,0.0003259809745941311,2.506171313143568e-06,0.01881740242242813
52.38973579928279,-0.009425593540072441,0.1011057049036026,9.805245399475098,0.00026147623430006206,2.4100152131723007e-06,0.020452849566936493
52.42856749892235,0.05049886927008629,0.0608978345990181,9.820268630981445,-4.8566344048595056e-05,1.4427185988097335e-06,0.019327437505126
52.46692829951644,-0.03889680653810501,0.18134832382202148,9.812551498413086,0.0002395284827798605,3.056861487493734e-06,0.022300103679299355
52.50552439689636,-0.01840321719646454,0.24136558175086975,9.806476593017578,0.00020983534341212362,3.7314925975806545e-06,0.023801537230610847
52.54424040019512,-0.038950756192207336,0.12158878147602081,9.808938026428223,0.00015685844118706882,4.132044978177873e-06,0.024950288236141205
52.58416640013456,0.03131165727972984,0.14108867943286896,9.802286148071289,-0.00010061346984002739,2.6409381916892016e-06,0.023805836215615273
52.623719196766615,-0.008034871891140938,0.20146305859088898,9.816572189331055,0.0002072108763968572,4.679915491578868e-06,0.026775440201163292
52.66241059824824,0.0017880704253911972,0.16138362884521484,9.81662654876709,-4.0612252632854506e-05,3.87233694709721e-06,0.025940045714378357
52.700197499245405,-0.03846924006938934,0.12180283665657043,9.813467979431152,5.50163440493634e-06,3.874144113069633e-06,0.026575881987810135
52.73999059945345,-0.037167832255363464,0.22194209694862366,9.792792320251465,0.0002938471152447164,6.2765120674157515e-06,0.029868748039007187
52.778478998690844,0.04283291473984718,0.20107677578926086,9.822373390197754,0.00024183926871046424,5.2829927881248295e-06,0.0313994474709034
52.815760497003794,0.0025061641354113817,0.16159991919994354,9.815810203552246,-4.078902929904871e-05,4.8305882955901325e-06,0.030426781624555588
52.855086997151375,-0.03699246793985367,0.18219272792339325,9.79164981842041,-1.2523702935141046e-05,5.049084393249359e-06,0.03095206990838051
52.89565910026431,-0.016750911250710487,0.1820114403963089,9.852814674377441,0.0002548903285060078,7.372277650574688e-06,0.03396519273519516
52.93626710027456,-0.016137653961777687,0.2021205872297287,9.790979385375977,0.00020153404329903424,7.057057700876612e-06,0.035385243594646454
52.97495310008526,0.10295853763818741,0.1398967206478119,9.76386833190918,0.00013459197361953557,6.944409960851772e-06,0.036331333220005035
53.0132702998817,-0.015989284962415695,0.18228653073310852,9.826239585876465,7.9227531387005e-05,7.166732302721357e-06,0.037010788917541504
53.053754799067974,0.014723735861480236,0.20167423784732819,9.850518226623535,6.152671994641423e-05,7.479203759430675e-06,0.03780084103345871
53.09332089871168,-0.025447264313697815,0.1825685203075409,9.755009651184082,-8.015103958314285e-05,6.975962605793029e-06,0.03721538558602333
53.13337889686227,-0.0251720380038023,0.18261848390102386,9.86730670928955,-1.8939635992865078e-05,7.72679595684167e-06,0.03775065392255783
53.17288049682975,0.035612281411886215,0.20103177428245544,9.752742767333984,3.682201713672839e-05,7.950106919452082e-06,0.038545213639736176
53.21181469783187,-0.03348023444414139,0.22303926944732666,9.828232765197754,0.00019869797688443214,9.63935144682182e-06,0.0406520701944828
53.2482683993876,0.04621484875679016,0.20074588060379028,9.832980155944824,3.9575959817739204e-05,9.006985237647314e-06,0.040473245084285736
53.28788289800286,-0.03216247260570526,0.2432030588388443,9.785114288330078,0.00012200756464153528,9.416457942279521e-06,0.04186207056045532
53.32696649804711,0.009540783241391182,0.28196507692337036,9.820967674255371,9.74230861174874e-05,1.0102095984620973e-05,0.042649053037166595
53.36374409869313,0.027196776121854782,0.20133733749389648,9.827619552612305,6.395111267920583e-05,9.940992640622426e-06,0.04314374178647995
53.40176569670439,-0.013174235820770264,0.18277831375598907,9.795191764831543,5.9418835007818416e-05,9.235062861989718e-06,0.04379488527774811
53.43896649777889,0.030127838253974915,0.26122814416885376,9.815486907958984,-2.996153307321947e-05,8.723513019504026e-06,0.043573737144470215
53.47944130003452,0.028203336521983147,0.20122112333774567,9.834335327148438,-1.1798798368545249e-05,9.931985005096067e-06,0.04387902095913887
53.517991699278355,-0.028093121945858,0.2835792899131775,9.758577346801758,1.1649048246908933e-05,1.0125302651431412e-05,0.044306304305791855
53.55749239772558,-0.011933724395930767,0.18288612365722656,9.813730239868164,3.237687633372843e-05,1.0099916835315526e-05,0.04480644688010216
53.59626889973879,-0.04798072203993797,0.2646423280239105,9.824006080627441,3.936621578759514e-05,9.979265087167732e-06,0.04526130482554436
53.63561709970236,0.011488326825201511,0.24195817112922668,9.80896282196045,2.816520463966299e-05,1.0745107829279732e-05,0.04556773975491524
53.674293000251055,-0.00806303322315216,0.24292051792144775,9.817745208740234,2.6428208002471365e-05,1.0814619599841535e-05,0.045914649963378906
53.7134126983583,-0.0076292348094284534,0.24294309318065643,9.806654930114746,1.8856408132705837e-05,1.0422879313409794e-05,0.04617127403616905
53.750618897378445,-0.046119559556245804,0.2650194466114044,9.823371887207031,6.491748990811175e-06,1.125970266002696e-05,0.04631657153367996
53.788398899137974,-0.004641483072191477,0.2829149663448334,9.800230026245117,2.070899654427194e-06,1.0365056368755177e-05,0.04647035896778107
53.827766697853804,0.01028251089155674,0.18197588622570038,9.79817008972168,2.9480916055035777e-05,1.1302297025395092e-05,0.04689962789416313
53.868005499243736,-0.01702454499900341,0.2236446589231491,9.855141639709473,3.8152444176375866e-05,1.1056896255468018e-05,0.04728050157427788
53.905685398727655,0.05561733990907669,0.2594418525695801,9.75837516784668,2.605914960440714e-05,1.1063477359130047e-05,0.04750695452094078
53.94551399722695,-0.04982911795377731,0.16563646495342255,9.801838874816895,-6.0069516621297225e-05,1.0925326023425441e-05,0.046936050057411194
53.983187299221754,-0.00583981815725565,0.22309084236621857,9.834742546081543,6.431750989577267e-06,1.1127685866085812e-05,0.047355107963085175
54.02323569729924,0.014538110233843327,0.22181180119514465,9.840790748596191,1.2064516340615228e-05,1.0947402188321576e-05,0.04752158746123314
54.06280239671469,-0.0010032926220446825,0.28296416997909546,9.749252319335938,2.337951627850998e-06,1.1789088603109121e-05,0.047582924365997314
54.10232299938798,-0.023169800639152527,0.24444954097270966,9.823800086975098,-3.986144747614162e-08,1.1150394129799679e-05,0.04764089360833168
54.14121279865503,0.017174415290355682,0.24164825677871704,9.82152271270752,-8.330561831826344e-05,1.0400000974186696e-05,0.04689561203122139
54.178922198712826,-0.005234769079834223,0.2031659036874771,9.819876670837402,1.819662793423049e-05,1.1232747056055814e-05,0.0474410243332386
54.21679509803653,0.035016775131225586,0.20021745562553406,9.805977821350098,1.642870483919978e-05,1.1437823559390381e-05,0.047545526176691055
54.255947198718786,0.05381019786000252,0.17869167029857635,9.800518989562988,2.5411907245143084e-06,1.1073802852479275e-05,0.04752538725733757
54.29536619782448,-0.0025687774177640676,0.22313612699508667,9.811592102050781,-6.083778771426296e-06,1.0606155228742864e-05,0.04747786000370979
54.33498279750347,0.0026220318395644426,0.2829454839229584,9.811590194702148,-1.2694003089563921e-05,1.0831354302354157e-05,0.04739658907055855
54.37482349947095,0.0017071558395400643,0.1425492912530899,9.810779571533203,-0.00011767308751586825,9.8680839073495e-06,0.046290650963783264
54.41490639746189,0.006965145468711853,0.20231135189533234,9.856168746948242,-6.942653999431059e-05,9.725269592308905e-06,0.04603436961770058
54.454265996813774,0.002472234657034278,0.26291805505752563,9.745002746582031,5.03262308484409e-05,1.025911024044035e-05,0.04677467793226242
54.49470639973879,0.014188471250236034,0.16155722737312317,9.859138488769531,-6.632145232288167e-05,9.627483450458385e-06,0.04584238678216934
54.53360150009394,-0.021823778748512268,0.20488080382347107,9.75634479522705,-4.866632298217155e-05,1.0034421393356752e-05,0.045591481029987335
54.57347349822521,0.0002743613440543413,0.22302448749542236,9.815004348754883,-2.8605067200260237e-05,9.23758307180833e-06,0.045433077961206436
54.611582197248936,-0.001183574553579092,0.20313400030136108,9.831575393676758,8.048910967772827e-05,1.0870890037040226e-05,0.04624733701348305
54.64944199845195,0.0010426732478663325,0.22303274273872375,9.8111572265625,-5.940761911915615e-05,9.940964446286671e-06,0.04528025537729263
54.68707939982414,-0.01466334331780672,0.26473522186279297,9.81033706665039,-5.641686584567651e-05,9.74450904323021e-06,0.04490963742136955
54.727562699466944,-0.023936951532959938,0.16522330045700073,9.838180541992188,-3.7367368349805474e-05,9.029345164890401e-06,0.0446857325732708
54.765662897378206,0.018124578520655632,0.1811709851026535,9.760444641113281,-2.3461818273062818e-05,8.938533028413076e-06,0.044530708342790604
54.805340398103,-0.009232043288648129,0.30460047721862793,9.80787467956543,8.294097642647102e-05,1.062732462742133e-05,0.04534435644745827
54.844936799257994,0.0009296436910517514,0.20311491191387177,9.820731163024902,4.116584750590846e-05,9.357631824968848e-06,0.04535342752933502
54.883589796721935,0.014898347668349743,0.14132125675678253,9.821697235107422,-0.00011055156210204586,8.614538273832295e-06,0.044060781598091125
54.921918500214815,0.021499626338481903,0.20091897249221802,9.81186580657959,-8.768470434006304e-05,8.71969859872479e-06,0.043621160089969635
54.962406396865845,-0.039957091212272644,0.18745127320289612,9.84221076965332,-4.8274170694639906e-05,9.12448376766406e-06,0.04339778423309326
55.001916497945786,-0.010996521450579166,0.26481175422668457,9.750319480895996,-3.0668128601973876e-05,8.615385922894347e-06,0.043184999376535416
55.042002499103546,-0.032634370028972626,0.24723148345947266,9.863736152648926,8.268235251307487e-05,9.10125072550727e-06,0.044009193778038025
55.08055389672518,-0.03448804095387459,0.2273762971162796,9.756546974182129,-6.070591552997939e-05,8.929512659960892e-06,0.04298648610711098
55.118634697049856,0.023193053901195526,0.2006758600473404,9.823704719543457,-5.675279680872336e-05,8.700566468178295e-06,0.04259572923183441
55.15860339999199,-0.02317647822201252,0.14567004144191742,9.80278205871582,-4.067389090778306e-05,8.014124432520475e-06,0.042340993881225586
55.19859039783478,0.006370194721966982,0.2228156477212906,9.818982124328613,7.427649688906968e-05,9.50835965340957e-06,0.04313940182328224
55.23864949867129,-0.007963163778185844,0.1843189001083374,9.860466003417969,4.34972025686875e-05,8.830887963995337e-06,0.043173898011446
55.278483897447586,-0.007867135107517242,0.264936238527298,9.743424415588379,5.050646450399654e-06,8.285967851406895e-06,0.042989276349544525
55.31787709891796,0.015038657933473587,0.12105056643486023,9.82459831237793,-0.00017395432223565876,6.9501306825259235e-06,0.041191086173057556
55.35744149982929,-0.016977079212665558,0.18549533188343048,9.814034461975098,-8.093678479781374e-05,7.75669832364656e-06,0.04102780297398567
55.397146098315716,0.023005934432148933,0.18048213422298431,9.812456130981445,5.692608101526275e-05,8.177859854185954e-06,0.04181113839149475
55.43735729902983,-0.026281550526618958,0.1868657022714615,9.855295181274414,3.7266032450133935e-05,8.555069143767469e-06,0.04182494804263115
55.47668369859457,-0.010882094502449036,0.22525963187217712,9.746726036071777,7.156960236898158e-06,7.70979568187613e-06,0.041666075587272644
55.51584259793162,-0.03559742122888565,0.18822413682937622,9.820601463317871,-0.0001149658128269948,7.514465778513113e-06,0.04043250158429146
55.553893499076366,-0.004868143238127232,0.2649129629135132,9.822147369384766,1.3462559763866011e-05,8.150855137500912e-06,0.04096106439828873
55.59388089925051,-0.03500876575708389,0.18829546868801117,9.796807289123535,-8.539047121303156e-05,7.199414994829567e-06,0.0399504080414772
55.63594039902091,0.026496732607483864,0.11937325447797775,9.851594924926758,-5.744005102314986e-05,6.217076588654891e-06,0.03958968073129654
55.674101799726486,-0.039915479719638824,0.1487337350845337,9.76732063293457,-3.589454718166962e-05,7.338120667554904e-06,0.039365254342556
55.7137752994895,-0.02300664223730564,0.2676279544830322,9.804941177368164,-1.564303966006264e-05,7.2658899625821505e-06,0.03922561556100845
55.75161149725318,-0.016856659203767776,0.16583849489688873,9.830177307128906,-1.8405329683446325e-05,7.0614182732242625e-06,0.03899294137954712
55.790864396840334,-0.0109238401055336,0.20547473430633545,9.799127578735352,6.931133975740522e-05,7.601809102197876e-06,0.039635781198740005
55.83056119829416,0.014931879937648773,0.24222999811172485,9.810784339904785,4.3254120100755244e-05,8.13590031611966e-06,0.03966384008526802
55.870194498449564,-0.021891126409173012,0.12638446688652039,9.814093589782715,1.1996827197435778e-05,7.326034392463043e-06,0.03953348845243454
55.90970479696989,-0.012899113819003105,0.18576467037200928,9.812424659729004,-1.2214394701004494e-05,7.427346190524986e-06,0.039315201342105865
55.949947498738766,0.0408015139400959,0.13733205199241638,9.851987838745117,-2.1638777980115265e-05,5.996298568788916e-06,0.0390985906124115
55.99049589782953,0.004455978516489267,0.16297882795333862,9.78652572631836,-0.00010675628436729312,6.096584002079908e-06,0.03804142400622368
56.02987849712372,0.010743420571088791,0.20247091352939606,9.758126258850098,-7.292432565009221e-05,6.085261247790186e-06,0.03770386427640915
56.0679486989975,-0.03460343927145004,0.16902180016040802,9.833978652954102,-3.949859456042759e-05,7.338351679209154e-06,0.037535302340984344
56.10497449710965,0.06443817913532257,0.15367797017097473,9.821372032165527,5.109312041895464e-05,7.050260137475561e-06,0.03807457536458969
56.144839096814394,-0.017468934878706932,0.14627467095851898,9.79117488861084,3.388079858268611e-05,6.8479066612781025e-06,0.0380915030837059
56.18425149843097,-0.03700680285692215,0.14942467212677002,9.822012901306152,-6.603310612263158e-05,5.432552825368475e-06,0.03720987215638161
56.22353399917483,0.0319543331861496,0.1991894692182541,9.814217567443848,-5.010247332393192e-05,6.447976829804247e-06,0.03691588714718819
56.261190097779036,0.009289823472499847,0.18258339166641235,9.822016716003418,-2.629637674544938e-05,6.240122274903115e-06,0.03677574545145035
56.29944719746709,-0.00052173639414832,0.24501629173755646,9.801267623901367,4.888988405582495e-05,6.469624167948496e-06,0.03727119043469429
56.33868629857898,-0.04939034581184387,0.19233648478984833,9.802627563476562,3.065092823817395e-05,6.891944394737948e-06,0.03728223592042923
56.3786887973547,0.013359508477151394,0.20228742063045502,9.853858947753906,-5.91477619309444e-05,6.268026027100859e-06,0.03649391978979111
56.416614796966314,-0.03243008628487587,0.16942071914672852,9.754977226257324,1.7516023945063353e-05,6.680540991510497e-06,0.036851949989795685
56.454706598073244,0.026966188102960587,0.15947255492210388,9.815336227416992,1.0422517334518488e-05,6.334434601740213e-06,0.03682393208146095
56.494600396603346,-0.015600746497511864,0.14642596244812012,9.802696228027344,-6.731191388098523e-05,6.161614237498725e-06,0.036055706441402435
56.53439199924469,0.0015767518198117614,0.24500158429145813,9.819443702697754,1.172022894024849e-05,6.240587026695721e-06,0.036396391689777374
56.574542697519064,-0.011759208515286446,0.16617010533809662,9.85831356048584,-5.5141030316008255e-05,5.056201189290732e-06,0.035717885941267014
56.613698199391365,-0.0011846949346363544,0.2252531796693802,9.74816608428955,-3.671090235002339e-05,5.535558102565119e-06,0.03552685305476189
56.65175059810281,0.001436443068087101,0.12331940233707428,9.827005386352539,3.4889297239715233e-05,6.362146450555883e-06,0.035936031490564346
56.68983559682965,0.024794762954115868,0.13949769735336304,9.811585426330566,-2.712225978029892e-05,4.390666163089918e-06,0.03544991835951805
56.72767340019345,-0.03407740220427513,0.15005868673324585,9.81301498413086,2.4870039851521142e-05,7.13654435458011e-06,0.03574250638484955
56.765641298145056,0.012596700340509415,0.18234412372112274,9.80880069732666,-3.277256109868176e-05,6.24648600933142e-06,0.03525569289922714
56.80594030022621,-0.003238898469135165,0.20558194816112518,9.842939376831055,-2.7546213459572755e-05,5.992921614961233e-06,0.035064034163951874
56.845895897597075,-0.02623920515179634,0.189500629901886,9.748762130737305,-1.8993061530636624e-05,6.280119123402983e-06,0.03492022678256035
56.88500199839473,-0.022342510521411896,0.20921121537685394,9.830018997192383,-1.1818466191471089e-05,5.91567913943436e-06,0.03483056649565697
56.92500839754939,0.009938320145010948,0.1625879555940628,9.855923652648926,-5.078934464108897e-06,5.722855803469429e-06,0.034735411405563354
56.96390329673886,0.0027683035004884005,0.12323976308107376,9.751544952392578,-7.042572633508826e-06,5.6801764003466815e-06,0.03463542461395264
57.00293419882655,-0.01777496375143528,0.2289358526468277,9.819750785827637,-4.410165274748579e-06,5.662254807248246e-06,0.03455537557601929
57.04141249880195,0.022742202505469322,0.11948884278535843,9.820361137390137,-6.387853773048846e-06,5.613105258817086e-06,0.03446052968502045
57.08214410021901,0.007041006814688444,0.1428849697113037,9.845108985900879,3.588339313864708e-05,5.577694537350908e-06,0.0347861684858799
57.12011769786477,-0.00861414149403572,0.16629129648208618,9.761921882629395,-2.4760549422353506e-05,5.550339210458333e-06,0.03435920923948288
57.15927029773593,0.01123932097107172,0.1624758541584015,9.80925178527832,-1.4139739505480975e-05,5.7619490689830855e-06,0.03426839038729668
57.19910089671612,-0.04778742045164108,0.27598994970321655,9.81383991241455,-1.2331694051681552e-05,5.978538411000045e-06,0.034174155443906784
57.23844039812684,0.031295277178287506,0.158559188246727,9.819894790649414,-7.437757176376181e-06,4.845947842113674e-06,0.03408895432949066
57.276769299060106,0.0275981854647398,0.13891316950321198,9.818740844726562,2.989151471410878e-05,5.527338544197846e-06,0.03437061607837677
57.317649099975824,-0.011429449543356895,0.14673472940921783,9.839391708374023,-1.8789029127219692e-05,5.139921540830983e-06,0.034024666994810104
57.35740429908037,-0.015192067250609398,0.1271367371082306,9.751054763793945,1.7142561773653142e-05,5.148679065314354e-06,0.034245990216732025
57.39539049938321,-0.0030791722238063812,0.1859630048274994,9.83291244506836,-2.5825233024079353e-05,4.73068212158978e-06,0.03388725593686104
57.43362579867244,0.016306281089782715,0.07996533811092377,9.809394836425781,-1.9953149603679776e-05,6.032724741089623e-06,0.033774808049201965
57.47356239706278,0.00892652478069067,0.1427379995584488,9.800165176391602,-1.0144048246729653e-05,5.312611847330118e-06,0.03371983766555786
57.51248610019684,-0.010470020584762096,0.14679580926895142,9.823044776916504,2.365177897445392e-05,5.22421987625421e-06,0.0339578241109848
57.55180939659476,0.009301625192165375,0.14272615313529968,9.807533264160156,1.4761191778234206e-05,5.6206413319159765e-06,0.03396618366241455
57.58983839675784,0.01359601877629757,0.162289097905159,9.819558143615723,3.6266947063268162e-06,6.297319032455562e-06,0.033920422196388245
57.62950389832258,-0.03661564737558365,0.21380534768104553,9.795828819274902,-3.078998270211741e-05,5.590306045633042e-06,0.03358025476336479
57.66748759895563,0.0027807827573269606,0.20553083717823029,9.823993682861328,5.146759576746263e-06,5.772169515694259e-06,0.033737797290086746
57.70728609710932,0.021219879388809204,0.09936226904392242,9.79442310333252,4.460286618268583e-06,5.419827630248619e-06,0.03373342379927635
57.7451945990324,-0.0009001933503895998,0.18596251308918,9.826314926147461,-2.701831363083329e-05,4.677717697632033e-06,0.033423151820898056
57.78544709831476,-0.028677327558398247,0.15111584961414337,9.837920188903809,6.794195996917551e-06,5.774702458438696e-06,0.03356882557272911
57.82579210028052,0.0038630457129329443,0.2054935246706009,9.790060043334961,-2.109625347657129e-05,4.72200235890341e-06,0.033294349908828735
57.8656309992075,0.006494916044175625,0.12304451316595078,9.756016731262207,-1.678696025919635e-05,5.031582077208441e-06,0.033196769654750824
57.90352709963918,0.010967391543090343,0.14257323741912842,9.840630531311035,-8.906120456231292e-06,5.011671419197228e-06,0.033151187002658844
57.9435237981379,0.011153295636177063,0.14255258440971375,9.8004789352417,-9.009604013954231e-07,5.08894436279661e-06,0.03313988074660301
57.98318099975586,0.004928753711283207,0.20546136796474457,9.821701049804688,-2.56339376392134e-07,5.810425591334933e-06,0.03309926390647888
58.02307429909706,-0.03382352367043495,0.21424825489521027,9.812381744384766,1.9927603716496378e-05,5.323063305695541e-06,0.033259253948926926
58.06255429983139,-0.0033745411783456802,0.16644185781478882,9.815732955932617,-1.940067704708781e-06,5.546051397686824e-06,0.03313649073243141
58.10207139700651,0.0252335537225008,0.20100396871566772,9.809550285339355,1.739535764500033e-05,4.983284270565491e-06,0.03329772502183914
58.14174069836736,0.03318247199058533,0.05557672679424286,9.809109687805176,1.0561876479187049e-05,5.6942667470138986e-06,0.033308565616607666
58.181424997746944,-0.02221067063510418,0.17095670104026794,9.81009578704834,-1.5835306840017438e-05,5.504619821294909e-06,0.03309481218457222
58.221676498651505,-0.012936257757246494,0.20995688438415527,9.852726936340332,7.603054655191954e-06,5.533708190341713e-06,0.033216893672943115
58.26223909854889,0.003545097541064024,0.10348111391067505,9.785724639892578,-1.76013072632486e-05,5.264822448225459e-06,0.03300923481583595
58.3014751970768,0.0414460152387619,0.17677655816078186,9.758774757385254,5.887736278964439e-06,5.081010385765694e-06,0.0331418402493
58.339691899716854,-0.045385465025901794,0.15620057284832,9.83108901977539,-1.3124819815857336e-05,5.26503845321713e-06,0.032965876162052155
58.37753549963236,0.0029709916561841965,0.18591901659965515,9.817752838134766,-6.157106327009387e-06,4.889246611128328e-06,0.03295236453413963
58.41636859998107,-0.010738776065409184,0.12756198644638062,9.805496215820312,1.2007500117761083e-05,5.391736976889661e-06,0.03306838497519493
58.45577449724078,0.0236439760774374,0.09878798574209213,9.810649871826172,7.464643658749992e-06,5.423452421382535e-06,0.03308287635445595
58.49501200020313,0.04790973663330078,0.11349911987781525,9.81566047668457,4.799591806659009e-06,5.388695171859581e-06,0.03307323157787323
58.532779298722744,0.00864066556096077,0.20534275472164154,9.821380615234375,-1.4603263480239548e-05,4.849235665460583e-06,0.03290492296218872
58.57108099758625,-0.024774761870503426,0.15179242193698883,9.802355766296387,3.594112513383152e-06,4.876758339378284e-06,0.032999761402606964
58.609007596969604,-0.010269740596413612,0.21009190380573273,9.811779975891113,-8.44840906211175e-06,5.130582849233178e-06,0.0328974723815918
58.64834509789944,-0.004976036958396435,0.1470576971769333,9.799202919006348,7.324775197048439e-06,5.265588242764352e-06,0.032988715916872025
58.686200600117445,-0.004793984349817038,0.14706793427467346,9.823301315307617,-6.105551619839389e-06,5.156854513188591e-06,0.03288048133254051
58.72375409677625,0.04390649124979973,0.09372640401124954,9.809146881103516,6.8757599365198985e-06,5.250916274235351e-06,0.03296428918838501
58.76268119737506,-0.03835311904549599,0.17621538043022156,9.798224449157715,-2.729641664700466e-06,5.526967470359523e-06,0.032893549650907516
58.80207159742713,-0.013838575221598148,0.1907629817724228,9.8101167678833,8.515352419635747e-06,4.876067123404937e-06,0.03297576680779457
58.84151129797101,0.010414457879960537,0.12278416752815247,9.812809944152832,-5.780683295597555e-06,5.121895355841843e-06,0.03286290913820267
58.879398599267006,0.02994467318058014,0.11782782524824142,9.822219848632812,-4.10611164625152e-06,5.4481802180816885e-06,0.03283721208572388
58.91848819702864,0.04003347083926201,0.15653103590011597,9.798057556152344,2.1892478798690718e-06,5.144951046531787e-06,0.03287450969219208
58.95705169811845,-0.013485965318977833,0.10837337374687195,9.814939498901367,-2.0035520265082596e-07,5.104487172502559e-06,0.032852981239557266
58.99675079807639,0.025372911244630814,0.09835459291934967,9.801648139953613,1.0539631148276385e-05,5.953223990218248e-06,0.03295392543077469
59.03740009665489,-0.017417795956134796,0.171525776386261,9.854240417480469,-6.295688308455283e-07,5.098692781757563e-06,0.0328846201300621
59.07762710005045,-0.022266164422035217,0.15219269692897797,9.79128646850586,-2.9452510261762654e-06,4.661734692490427e-06,0.03284547105431557
59.11791639775038,0.002370066475123167,0.16646599769592285,9.797455787658691,-9.258940849576902e-07,5.6775047596602235e-06,0.03284519538283348
59.15768479928374,-0.0025377210695296526,0.14712432026863098,9.76053524017334,4.370837700662378e-07,5.101637270854553e-06,0.032843731343746185
59.19765339791775,-0.0074919164180755615,0.12781256437301636,9.828987121582031,1.0169887900701724e-05,4.606287802744191e-06,0.032933782786130905
59.236966997385025,0.011991146020591259,0.12265466898679733,9.826766014099121,6.8607678258558735e-06,5.340736151993042e-06,0.03295570984482765
59.276367496699095,-0.010883830487728119,0.1909712851047516,9.814167976379395,4.658737907448085e-06,5.002024863642873e-06,0.032961875200271606
59.3160457983613,-0.010634947568178177,0.19099049270153046,9.810962677001953,2.06686800083844e-05,5.945210887148278e-06,0.03316686302423477
59.35353560000658,-0.020893601700663567,0.15241283178329468,9.826528549194336,3.5956841202278156e-06,5.123155006003799e-06,0.03310477361083031
59.393523298203945,-0.010149666108191013,0.19101938605308533,9.787835121154785,-5.0344146984571125e-06,5.065829554951051e-06,0.03304826840758324
59.434195797890425,0.03206688538193703,0.11729227751493454,9.856709480285645,-5.338651135389227e-06,5.294650236464804e-06,0.033017583191394806
59.47449899837375,0.004311094526201487,0.16644448041915894,9.790860176086426,-3.506191660562763e-06,5.24056895301328e-06,0.03299626708030701
59.514704298228025,-0.034012194722890854,0.17713993787765503,9.798118591308594,-1.5123500816116575e-06,5.2417422011785675e-06,0.03300592675805092
59.5545560978353,-0.009142758324742317,0.19106751680374146,9.759085655212402,-5.265214895189274e-07,5.013836471334798e-06,0.033019308000802994
59.592530500143766,0.010354799218475819,0.18569312989711761,9.84263801574707,3.242840421080473e-06,5.034412424720358e-06,0.033038925379514694
59.631471298635006,-0.07725884020328522,0.16887617111206055,9.809410095214844,7.371382253040792e-06,5.148315267433645e-06,0.03310991823673248
59.67209889739752,0.021740540862083435,0.22415898740291595,9.852984428405762,5.183558187127346e-06,5.442735982796876e-06,0.0331074520945549
59.71300979703665,0.0056115929037332535,0.16641302406787872,9.792811393737793,-4.7252495960492524e-07,5.353675987862516e-06,0.03308029845356941
59.75289160013199,-0.01890142448246479,0.1526738852262497,9.760612487792969,5.606375452771317e-06,6.134909654065268e-06,0.03315834328532219
59.79367649927735,0.011582178995013237,0.18563136458396912,9.868986129760742,1.0461455985932844e-06,4.903954049950698e-06,0.03313157707452774
59.835221599787474,-0.03770138695836067,0.1582852154970169,9.794587135314941,-1.5938817341520917e-06,5.230829628999345e-06,0.03311952203512192
59.874915197491646,-0.0015519727021455765,0.21036939322948456,9.768073081970215,-2.323372427781578e-06,5.314886493579252e-06,0.03310481086373329
59.915282897651196,-0.037281982600688934,0.15840831398963928,9.869547843933105,3.522820406942628e-05,5.337986294762231e-06,0.033462703227996826
59.954960096627474,0.0317569300532341,0.17993468046188354,9.755032539367676,2.110835339408368e-06,5.635074103338411e-06,0.03333032876253128
59.994699597358704,-0.031211405992507935,0.17768888175487518,9.825008392333984,1.3899266377848107e-06,5.721272373193642e-06,0.03335845470428467
60.03452579677105,-0.025295831263065338,0.19690553843975067,9.818526268005371,1.3071801276964834e-06,5.397550921770744e-06,0.03337515518069267
60.07456819713116,0.013303323648869991,0.18553180992603302,9.859816551208496,1.710826495582296e-06,4.938669917464722e-06,0.03338460996747017
60.11306739971042,-0.03624897822737694,0.15863890945911407,9.751032829284668,7.534741257586575e-07,4.989738044969272e-06,0.03340314328670502
60.15494939684868,-0.024509118869900703,0.19701117277145386,9.845232963562012,2.013591142713267e-07,5.6787462199281435e-06,0.03340478986501694
60.19527339935303,0.014043763279914856,0.1854688972234726,9.805365562438965,3.5180271424906095e-06,5.314335339789977e-06,0.03344229981303215
60.23479430004954,-0.029799537733197212,0.1779250204563141,9.75872802734375,-3.1375639082398266e-06,5.3939002100378275e-06,0.03340538963675499
60.273840598762035,-0.01043737307190895,0.17214098572731018,9.830404281616211,-1.136161586146045e-06,5.466311449708883e-06,0.03341817483305931
60.311763398349285,-0.023484671488404274,0.19713525474071503,9.825712203979492,1.8150908545067068e-06,5.16324553245795e-06,0.033443208783864975
60.35238429903984,-0.009988714940845966,0.17217038571834564,9.841602325439453,6.516481334983837e-06,5.1660817916854285e-06,0.03348815068602562
60.392110496759415,0.0020567739848047495,0.2103828638792038,9.752748489379883,2.1278515305311885e-07,5.5943182815099135e-06,0.033485665917396545
60.43059379979968,0.009557231329381466,0.16625991463661194,9.831461906433105,6.428451797546586e-06,5.65092477700091e-06,0.033538442105054855
60.47049940004945,0.03007708489894867,0.09704820811748505,9.804372787475586,4.503519448917359e-06,5.354058885131963e-06,0.03356882929801941
60.508938398212194,0.015975695103406906,0.18531744182109833,9.826244354248047,4.981937763659516e-06,6.067153663025238e-06,0.0335964672267437
60.5486282967031,0.004198480397462845,0.14714138209819794,9.80041217803955,3.616711182985455e-06,5.367915946408175e-06,0.033620160073041916
60.588911198079586,-0.008633200079202652,0.17224885523319244,9.855978965759277,5.476837941387203e-06,4.917882961308351e-06,0.03364894166588783
60.6303441002965,-0.002333807060495019,0.1913081705570221,9.783933639526367,4.072676347277593e-06,5.229754606261849e-06,0.0336771197617054
60.66941199824214,0.010878389701247215,0.16617465019226074,9.766542434692383,1.3413982742349617e-05,5.39284474143642e-06,0.03380263224244118
60.707791198045015,-0.014062213711440563,0.15324634313583374,9.828030586242676,6.40726739220554e-06,6.1222553995321505e-06,0.033823199570178986
60.74533749744296,-0.03966493532061577,0.20360811054706573,9.821110725402832,6.3713141571497545e-06,5.458402938529616e-06,0.03386272117495537
60.78485429659486,0.005359737668186426,0.14711545407772064,9.797849655151367,5.419207809609361e-06,5.1367269406910054e-06,0.033898912370204926
60.82493779808283,-0.013911308720707893,0.21655113995075226,9.859492301940918,3.6637657103710808e-06,5.452779987535905e-06,0.03392089158296585
60.86399509757757,-0.00046482495963573456,0.12808333337306976,9.750395774841309,3.3540840149726137e-07,5.459663043438923e-06,0.03392458334565163
60.90432199835777,0.018713155761361122,0.12186206132173538,9.859335899353027,4.659415481000906e-06,6.119201316323597e-06,0.033976953476667404
60.944166500121355,-0.013043779879808426,0.21658924221992493,9.751994132995605,1.4116179727352574e-06,5.441457687993534e-06,0.033986158668994904
60.98260149732232,0.02532290853559971,0.14079350233078003,9.834480285644531,8.449907795693434e-07,5.138568667462096e-06,0.033996883779764175
61.022644497454166,0.03817308321595192,0.1154690533876419,9.850469589233398,6.364739874697989e-06,5.177224011276849e-06,0.03405369445681572
61.062051597982645,-0.005896881688386202,0.17236310243606567,9.750754356384277,4.599689304995991e-07,5.259658337308792e-06,0.03405475616455078
61.10258149728179,-0.018393948674201965,0.13447153568267822,9.862602233886719,4.610246833181009e-06,5.928754035267048e-06,0.03408718854188919
61.14248849824071,-0.005428332835435867,0.17237979173660278,9.753152847290039,4.714661827165401e-06,5.6804083214956336e-06,0.034133121371269226
61.18263280019164,0.013750782236456871,0.16598668694496155,9.86991024017334,5.112578946864232e-06,5.271262580208713e-06,0.034161750227212906
61.22325339913368,-0.01140208262950182,0.15346863865852356,9.792797088623047,1.9911299204977695e-06,5.245949068921618e-06,0.03416147455573082
61.262205097824335,0.007723529823124409,0.14700822532176971,9.765326499938965,2.7082219276053365e-06,5.35239541932242e-06,0.03419812023639679
61.301741398870945,-0.010993527248501778,0.15350423753261566,9.822166442871094,1.8996950075234054e-06,6.138263415778056e-06,0.03421137481927872
61.3420125991106,0.01530891377478838,0.22915174067020416,9.862915992736816,1.4232773537514731e-06,5.399584551923908e-06,0.03421911224722862
61.38133439794183,0.009063826873898506,0.2102157324552536,9.752954483032227,3.3053879633371253e-06,5.849890385434264e-06,0.0342562310397625
61.421457298099995,-0.04240647330880165,0.12235869467258453,9.863725662231445,1.5960160453687422e-05,5.923480784986168e-06,0.034392379224300385
61.45992499962449,-0.003571151290088892,0.17244291305541992,9.758299827575684,1.1236286809435114e-05,6.001087967888452e-06,0.03444617614150047
61.500554997473955,0.002289444673806429,0.12810218334197998,9.854472160339355,6.912996923347237e-06,5.611135293293046e-06,0.03447708114981651
61.53999959677458,0.015762101858854294,0.16580648720264435,9.758540153503418,4.668170731747523e-06,5.691278602171224e-06,0.034508951008319855
61.58040949702263,-0.008354583755135536,0.21686255931854248,9.865254402160645,6.639829734922387e-07,5.298379619489424e-06,0.03450528159737587
61.6194966994226,-0.002630735281854868,0.17246656119823456,9.757699966430664,5.318831313161354e-07,4.6164477680576965e-06,0.03451106324791908
61.66008749976754,0.02854953706264496,0.14019423723220825,9.860834121704102,4.439596523297951e-06,5.2240106924728025e-06,0.03456436097621918
61.699741799384356,-0.027736900374293327,0.1604047566652298,9.756058692932129,4.074225671502063e-06,5.995570518280147e-06,0.03459462523460388
61.74070459976792,-0.0019115516915917397,0.1724947988986969,9.86404037475586,3.6839885524386773e-06,5.3394519454741385e-06,0.0346187949180603
61.779556296765804,-0.020490474998950958,0.1792883276939392,9.7623291015625,-3.247226004532422e-06,5.745023372583091e-06,0.03459548205137253
61.81845569983125,-0.0014529300387948751,0.17249301075935364,9.821301460266113,2.455742333040689e-06,5.4218185141508e-06,0.034633636474609375
61.85855869948864,-0.0012144902721047401,0.172500878572464,9.855469703674316,4.231529601383954e-06,5.693888397217961e-06,0.034671660512685776
61.899975799024105,0.004034443758428097,0.12805132567882538,9.787988662719727,5.1704555517062545e-06,6.0691245380439796e-06,0.03471022844314575
61.93858279660344,-0.026421578601002693,0.1606336534023285,9.771692276000977,-2.756512003543321e-06,5.673181931342697e-06,0.03466993197798729
61.976476199924946,0.01824268139898777,0.16556525230407715,9.828203201293945,2.9763700695184525e-06,5.743915153288981e-06,0.03472770005464554
62.01457170024514,0.0018419167026877403,0.23570922017097473,9.814153671264648,7.643016942893155e-06,7.277062195498729e-06,0.03478117287158966
62.056037198752165,0.011708984151482582,0.14677751064300537,9.841482162475586,4.967084805684863e-06,5.57794191990979e-06,0.03480871394276619
62.0952854976058,0.018919821828603745,0.16548891365528107,9.762226104736328,3.4321499697398394e-05,6.805218617955688e-06,0.035135217010974884
62.13495929911733,-0.01829136162996292,0.17955118417739868,9.818988800048828,-3.233846200600965e-06,6.009640401316574e-06,0.034984663128852844
62.17567799985409,-0.01803690753877163,0.17958398163318634,9.858308792114258,-2.7640080588753335e-06,5.905322723265272e-06,0.03497162088751793
62.21586349979043,0.0009118136949837208,0.17250654101371765,9.794519424438477,2.9366092348936945e-06,5.896901711821556e-06,0.03501865267753601
62.256025198847055,-0.008632383309304714,0.09062667191028595,9.799074172973633,-2.521199803595664e-06,5.470836185850203e-06,0.03499182313680649
62.29669409990311,-0.021673910319805145,0.224155992269516,9.801924705505371,2.9726056709478144e-06,5.809737558593042e-06,0.035048410296440125
62.336367797106504,0.01745854876935482,0.10214494168758392,9.767119407653809,-3.363582891324768e-06,6.184126050357008e-06,0.03501301258802414
62.37646249681711,-0.009587379172444344,0.19837108254432678,9.874778747558594,5.531204806175083e-06,5.494593096955214e-06,0.03507199138402939
62.417020197957754,-0.009309585206210613,0.19837196171283722,9.796892166137695,4.61951731267618e-06,5.854681148775853e-06,0.03509998321533203
62.45679919794202,0.02410399541258812,0.2284087836742401,9.762953758239746,3.849868335237261e-06,5.939642960584024e-06,0.03511882200837135
62.49695399776101,0.002597849816083908,0.17250509560108185,9.873513221740723,4.046238245791756e-06,5.862431862624362e-06,0.035126637667417526
62.537408497184515,-0.011767091229557991,0.13525070250034332,9.79641342163086,2.1901219042774756e-06,5.851108653587289e-06,0.03514045104384422
62.57774609699845,0.010409853421151638,0.19109496474266052,9.80414867401123,-3.3526971492392477e-06,5.783320830232697e-06,0.03511087968945503
62.61774029955268,0.0033211628906428814,0.1724855601787567,9.7621431350708,3.2698979339329526e-05,5.896802122151712e-06,0.03546629101037979
62.656545996665955,-0.026237864047288895,0.20584432780742645,9.839850425720215,-4.4764501581084915e-06,6.0480688262032345e-06,0.035300109535455704
62.696986597031355,0.0223794374614954,0.1650843769311905,9.854890823364258,-1.5788272094141576e-06,5.981495178275509e-06,0.03529549762606621
62.73774119839072,0.022649602964520454,0.2727455198764801,9.793877601623535,-3.8539192246389575e-06,5.908047569391783e-06,0.035282108932733536
62.777247697114944,-0.010636994615197182,0.13535253703594208,9.762396812438965,3.6137653296464123e-06,5.724860329792136e-06,0.035347070544958115
62.817633997648954,-0.021502703428268433,0.16141806542873383,9.867817878723145,-1.2132863957958762e-06,5.67983215660206e-06,0.03532037511467934
62.85869309678674,0.00878095906227827,0.23557749390602112,9.794843673706055,4.1380094444321e-06,5.731912096962333e-06,0.03537438064813614
62.898916997015476,0.012558532878756523,0.19097885489463806,9.807899475097656,-2.536648025852628e-06,6.001862857374363e-06,0.035323161631822586
62.93933069705963,-0.00568494014441967,0.19852672517299652,9.804243087768555,-2.870493290174636e-06,5.976830834697466e-06,0.03532390668988228
62.97925619781017,-0.039095621556043625,0.16911491751670837,9.76465892791748,6.498663424281403e-06,5.783026153949322e-06,0.03539302945137024
63.0199161991477,0.016624070703983307,0.14633290469646454,9.87435245513916,2.295886361025623e-07,5.705568128178129e-06,0.03536064550280571
63.06046339869499,-0.015677060931921005,0.2246762067079544,9.800220489501953,5.164053618500475e-06,6.088653208280448e-06,0.035410694777965546
63.098928697407246,-0.009115498512983322,0.13546912372112274,9.769417762756348,2.4725122784730047e-06,5.419546596385771e-06,0.035420674830675125
63.13958589732647,0.017236726358532906,0.146264910697937,9.858466148376465,1.1315893061691895e-05,6.221880994417006e-06,0.035511452704668045
63.17795189842582,0.020435292273759842,0.10160601139068604,9.767093658447266,1.4897260598445428e-06,6.304867383732926e-06,0.035497862845659256
63.21869769692421,-0.008544180542230606,0.1355273425579071,9.854860305786133,5.0530275075288955e-06,6.29348096481408e-06,0.03553320840001106
63.26004799827933,-0.006321435794234276,0.2432147115468979,9.797345161437988,-1.542376139695989e-06,6.2669796534464695e-06,0.03552081808447838
63.30205610021949,-0.003153515513986349,0.19859205186367035,9.80282974243164,-1.8688143654799205e-06,6.226714504009578e-06,0.035496726632118225
63.3428208976984,-0.02635861374437809,0.14338833093643188,9.814043998718262,8.21403955342248e-06,5.5877453633002006e-06,0.03558160737156868
63.38207709789276,0.01847872883081436,0.14609843492507935,9.768630981445312,-4.01070064981468e-06,5.564500497712288e-06,0.0355190671980381
63.42295429855585,-0.04956665635108948,0.24064438045024872,9.8659086227417,-1.121073978538334e-06,6.2159874687495176e-06,0.03552123159170151
63.46338829770684,-0.007382175885140896,0.1355901062488556,9.802322387695312,-2.6826564862858504e-06,5.7855841077980585e-06,0.03549039363861084
63.50508699938655,0.000752029474824667,0.1539587378501892,9.798778533935547,-1.1027817663489259e-06,5.8147147683484945e-06,0.03549768775701523
63.54591169953346,-0.011831480078399181,0.2249252200126648,9.81259536743164,8.4622342910734e-06,6.2129115576681215e-06,0.035567816346883774
63.58779799938202,0.0012000687420368195,0.15396271646022797,9.803691864013672,7.328113042603945e-06,5.91524803894572e-06,0.03560389578342438
63.628833796828985,0.0014232117682695389,0.15396824479103088,9.814477920532227,1.1601775440794881e-05,6.009684966556961e-06,0.035695914179086685
63.66736359894276,0.01190103217959404,0.12760615348815918,9.776307106018066,-5.288776264933404e-06,5.968242476228625e-06,0.03560627996921539
63.70603509992361,-0.028858203440904617,0.23307062685489655,9.826031684875488,4.730544787889812e-06,6.449238753702957e-06,0.035674672573804855
63.746422097086906,-3.9470382034778595e-05,0.1986410915851593,9.856449127197266,1.1858519428642467e-06,6.356359790515853e-06,0.03565150499343872
63.786659099161625,-0.02615625411272049,0.18847349286079407,9.79671859741211,-3.3765084026526893e-06,6.239559752430068e-06,0.03561803326010704
63.82718639820814,-0.003673480823636055,0.09101038426160812,9.800689697265625,6.647850113949971e-06,6.270764970395248e-06,0.03569440916180611
63.86829200014472,0.027241123840212822,0.2087126225233078,9.803601264953613,-4.948381956637604e-06,6.177111117722234e-06,0.03561840206384659
63.908834397792816,0.004785824567079544,0.10926535725593567,9.811524391174316,-3.4184818105131853e-06,5.808206879009958e-06,0.035591233521699905
63.949534099549055,0.027841733768582344,0.20864465832710266,9.807720184326172,3.403939263080247e-05,6.600109372811858e-06,0.035946786403656006
63.988889399915934,0.003377692773938179,0.1539439707994461,9.770837783813477,-4.611454642144963e-06,5.784389031759929e-06,0.03575867787003517
64.02788909897208,0.04000547528266907,0.13739633560180664,9.833171844482422,-5.511449671757873e-06,6.486546226369683e-06,0.035728178918361664
64.06814389675856,0.023595213890075684,0.10095344483852386,9.859406471252441,-2.354933030801476e-06,5.65300251764711e-06,0.03573521226644516
64.10771179944277,-0.025539712980389595,0.23346249759197235,9.75278091430664,4.763912784255808e-06,6.114298230386339e-06,0.035799216479063034
64.14610559865832,-0.025219449773430824,0.23351110517978668,9.831825256347656,-3.6344229101814562e-06,6.070245490263915e-06,0.03573748096823692
64.18531759828329,0.02260759472846985,0.14554566144943237,9.808533668518066,1.6777028122305637e-07,6.122313152445713e-06,0.03574317321181297
64.227293998003,-0.0037295985966920853,0.1357772797346115,9.846196174621582,-5.538166760743479e-07,6.067237336537801e-06,0.03572661802172661
64.26811979711056,0.012061119079589844,0.21674883365631104,9.799508094787598,8.511205123795662e-06,6.4761729845486116e-06,0.03579522669315338
64.30741779878736,-0.013012644834816456,0.1623554229736328,9.760926246643066,1.5994260138540994e-06,6.1819787333661225e-06,0.0357925146818161
64.34798689931631,0.022303303703665733,0.19012942910194397,9.863117218017578,-7.595922852488002e-06,5.700173460354563e-06,0.035702891647815704
64.38815929740667,-0.013626395724713802,0.20710262656211853,9.798819541931152,-6.056400252418825e-06,5.94539142184658e-06,0.035664886236190796
64.428357899189,0.004754711873829365,0.1985863745212555,9.801787376403809,-3.532938990247203e-06,5.901752956560813e-06,0.03564947471022606
64.471106197685,-0.012073511257767677,0.16243097186088562,9.795940399169922,-3.255427145631984e-07,5.9383269217505585e-06,0.03564409539103508
64.51289629936218,0.04147159308195114,0.18140293657779694,9.8173189163208,2.933465293608606e-05,6.294352715485729e-06,0.03592979907989502
64.55331729725003,-0.011599116027355194,0.16248564422130585,9.815444946289062,6.536219643749064e-06,5.829944257129682e-06,0.03586449846625328
64.59415869787335,-0.011364572681486607,0.16249588131904602,9.805498123168945,-1.180914114229381e-05,5.6525195759604685e-06,0.03572620078921318
64.63542619720101,-0.011809864081442356,0.20722943544387817,9.807878494262695,1.0550768365646945e-06,6.492814009106951e-06,0.03578530251979828
64.6735360994935,0.007102468982338905,0.1538294404745102,9.78140926361084,-4.2086912799277343e-07,5.902684279135428e-06,0.035785600543022156
64.71332449838519,-0.001400450710207224,0.13582661747932434,9.81554126739502,-6.56031261314638e-07,6.339895662677009e-06,0.03576838970184326
64.75380179658532,0.025034237653017044,0.1897960603237152,9.866999626159668,-2.63684114543139e-08,6.590193152078427e-06,0.035762540996074677
64.79567689821124,-0.03695276379585266,0.15336783230304718,9.78995418548584,-9.451467121834867e-06,6.422396836569533e-06,0.03565136715769768
64.835798997432,0.016783908009529114,0.17174769937992096,9.811613082885742,2.2962021830608137e-06,6.453316473198356e-06,0.03571753576397896
64.87611999735236,-0.010042340494692326,0.20731952786445618,9.80223560333252,1.226831273015705e-06,5.329609393811552e-06,0.035710494965314865
64.91755789890885,0.007964587770402431,0.2432040125131607,9.80224609375,1.2791736025974387e-06,6.012627181917196e-06,0.0357162170112133
64.9576488994062,-0.036241911351680756,0.19831132888793945,9.816093444824219,1.0579968147794716e-05,6.458974894485436e-06,0.035795778036117554
64.99975359812379,-0.009033373557031155,0.16264662146568298,9.799646377563477,-5.995324954710668e-06,5.685296855517663e-06,0.0356982946395874
65.04077069833875,0.00013326853513717651,0.1805587112903595,9.81754207611084,3.743674369616201e-06,6.492465672636172e-06,0.03576090559363365
65.07956159859896,0.036146435886621475,0.1626414954662323,9.775216102600098,8.051857776081306e-07,6.233289241208695e-06,0.03575402498245239
65.12001349776983,0.009438752196729183,0.10898885130882263,9.864601135253906,-7.82624920248054e-06,5.737037099606823e-06,0.03565913811326027
65.15941589698195,0.03645019605755806,0.11780983954668045,9.760483741760254,1.038024265653803e-06,5.8807709137909114e-06,0.03570348024368286
65.19997959956527,0.0013701459392905235,0.22528035938739777,9.865591049194336,9.76604496827349e-07,6.153061804070603e-06,0.03570350259542465
65.2389329969883,0.0008342955261468887,0.09109415113925934,9.760446548461914,-1.0174488124903291e-05,6.0526231209223624e-06,0.035591959953308105
65.27738159894943,0.01946271024644375,0.17146360874176025,9.826138496398926,2.499163201719057e-06,6.487638074759161e-06,0.035651545971632004
65.31767689809203,0.010600520297884941,0.15363354980945587,9.850702285766602,-1.8980472304974683e-06,5.969974608888151e-06,0.03560283035039902
65.35773469880223,-0.01563798077404499,0.18967702984809875,9.795108795166016,2.9637161787832156e-05,6.235391992959194e-06,0.03589971736073494
65.39645969867706,0.03689879551529884,0.07278700917959213,9.7620849609375,-6.434619535866659e-06,5.7614120123616885e-06,0.0357077494263649
65.43793859705329,-0.05063173919916153,0.2080981582403183,9.85584831237793,2.7110090741189197e-06,6.482875051005976e-06,0.03575247526168823
65.47722859680653,-0.032590679824352264,0.19894103705883026,9.766823768615723,-1.11113668026519e-05,6.084987489884952e-06,0.03563659265637398
65.51802219823003,-0.03302768990397453,0.15428400039672852,9.861842155456543,-5.014607722841902e-06,5.668650828738464e-06,0.0356280691921711
65.5590933971107,-0.01270381547510624,0.27920499444007874,9.796651840209961,-3.6124429243500344e-06,6.319040949165355e-06,0.03559602424502373
65.59989069774747,-0.030871408060193062,0.24379700422286987,9.8046875,-3.6098222153668758e-06,5.9127451095264405e-06,0.03556719049811363
65.63966989889741,0.02073262259364128,0.1264794021844864,9.76525592803955,-3.831960384559352e-06,5.9648941714840475e-06,0.03553962707519531
65.68231019750237,-0.02181045152246952,0.21687306463718414,9.861394882202148,8.815965884423349e-06,6.727023446728708e-06,0.0356181263923645
65.72328649833798,-0.012134866788983345,0.23456941545009613,9.810356140136719,6.199155450303806e-06,6.042330824129749e-06,0.03562299534678459
65.76505279913545,0.022410986945033073,0.1711050420999527,9.799360275268555,2.126127583323978e-05,6.281286914600059e-06,0.03581441566348076
65.80472749844193,0.0038217403925955296,0.13577748835086823,9.772026062011719,-8.289083552881493e-07,6.230153758224333e-06,0.03571859374642372
65.84277709946036,0.02288226969540119,0.17104971408843994,9.839183807373047,-4.933630407322198e-06,6.149229648144683e-06,0.035671208053827286
65.8830964975059,-0.005264993291348219,0.11816061288118362,9.847796440124512,-3.1780027711647563e-06,5.7218194342567585e-06,0.035646501928567886
65.92458439990878,-0.021325599402189255,0.17234891653060913,9.790761947631836,-2.1407995518529788e-06,5.673300165653927e-06,0.035634204745292664
65.96571699902415,-0.002044881694018841,0.20756040513515472,9.80565071105957,-1.4028260920895264e-05,5.848365617566742e-06,0.03550677001476288
66.00663419812918,-0.020827308297157288,0.17240868508815765,9.80688762664795,1.911117124109296e-06,5.561234956985572e-06,0.03556741029024124
66.0480084978044,0.03211391717195511,0.14373375475406647,9.80573558807373,-9.695566404843703e-06,5.777845217380673e-06,0.03545685485005379
66.08936600014567,0.0051805865950882435,0.13573069870471954,9.810044288635254,3.386761818546802e-06,6.182492143125273e-06,0.035512588918209076
66.13059239834547,-0.010456280782818794,0.1900411695241928,9.810523986816406,2.1564035705523565e-05,5.715801307815127e-06,0.035717662423849106
66.17132849991322,0.032737117260694504,0.14360417425632477,9.811767578125,-8.41511609905865e-06,5.90441914027906e-06,0.03552086278796196
66.21004400029778,-0.0020847534760832787,0.16288861632347107,9.773970603942871,4.809530764759984e-07,6.384306743711932e-06,0.03556331619620323
66.24960489943624,0.04282475635409355,0.16100960969924927,9.822761535644531,-2.617707650642842e-08,5.774636974820169e-06,0.03555429354310036
66.28949879854918,-0.03854324296116829,0.1376585215330124,9.821311950683594,-6.464529178629164e-08,6.197933089424623e-06,0.0355491004884243
66.33002929762006,0.02379625290632248,0.12596042454242706,9.860851287841797,-3.7533789054577937e-07,6.464428679464618e-06,0.035532280802726746
66.37107849866152,-0.016530752182006836,0.21734271943569183,9.789102554321289,-4.5133515413908754e-07,6.443110578402411e-06,0.035513985902071
66.41293839737773,0.0012279078364372253,0.2075750231742859,9.797219276428223,-9.99795247480506e-07,5.740271717513679e-06,0.035494498908519745
66.45411959663033,-0.018110033124685287,0.1727229654788971,9.809142112731934,-1.2593572137120645e-05,5.527510438696481e-06,0.03536057472229004
66.49430959671736,-0.02543226070702076,0.20000280439853668,9.81049633026123,1.6101787423394853e-06,6.208781542227371e-06,0.03541486710309982
66.53367939963937,0.056635525077581406,0.22261367738246918,9.764907836914062,1.7609429505682783e-06,6.261942871788051e-06,0.03540823981165886
66.57268559932709,-0.03717529773712158,0.13804340362548828,9.832584381103516,9.814904842642136e-06,6.049820512998849e-06,0.03548844903707504
66.61316929757595,0.02005821093916893,0.19765613973140717,9.85793399810791,-2.0240449885022826e-06,5.544562100112671e-06,0.03542778268456459
66.65437679737806,-0.044192515313625336,0.16544057428836823,9.792753219604492,-3.021918246304267e-06,6.1426144384313375e-06,0.03538770228624344
66.69493619725108,0.010656747967004776,0.18024992942810059,9.805655479431152,5.923191565671004e-06,5.48639354747138e-06,0.03544897213578224
66.73615399748087,-0.009068097919225693,0.14558473229408264,9.802471160888672,7.840058628971747e-07,5.505675744643668e-06,0.035440050065517426
66.7765741981566,0.0038808993995189667,0.207548126578331,9.811799049377441,-2.9398529477475677e-07,6.611263415834401e-06,0.03542040288448334
66.81644069775939,-0.011448062025010586,0.10096475481987,9.76501178741455,-1.1200248991372064e-05,5.874556336493697e-06,0.03530701622366905
66.85669369995594,0.028962790966033936,0.17012755572795868,9.875579833984375,2.2393710423784796e-06,5.11650205226033e-06,0.03535185381770134
66.89807889983058,-0.0499534085392952,0.19317209720611572,9.794429779052734,8.599395187047776e-07,6.147046860860428e-06,0.03535008430480957
66.93878339976072,0.012196540832519531,0.18014384806156158,9.80901050567627,-1.0443664905324113e-05,5.658503141603433e-06,0.03522522747516632
66.97918440029025,0.002309594303369522,0.16288824379444122,9.807525634765625,4.031233856949257e-06,5.353700089472113e-06,0.03528214991092682
67.0182584002614,0.012695904821157455,0.18010292947292328,9.768791198730469,2.74624653684441e-06,6.463420959335053e-06,0.03529473766684532
67.05919379740953,-0.0042526014149188995,0.19029617309570312,9.86494255065918,8.224806151702069e-06,6.182244760566391e-06,0.035359401255846024
67.10015369951725,-0.00398163590580225,0.19029180705547333,9.801633834838867,-3.813443072431255e-06,6.080941602704115e-06,0.03526982665061951
67.14277569949627,-0.0036977631971240044,0.19029751420021057,9.79872989654541,5.414745828602463e-06,5.780343599326443e-06,0.035325340926647186
67.18185929954052,-0.017065774649381638,0.12854023277759552,9.7825288772583,7.288286383300147e-07,5.819297712150728e-06,0.03531818464398384
67.2229423969984,0.03456656634807587,0.21432985365390778,9.861306190490723,-5.9909807532676496e-06,6.051053333067102e-06,0.035237617790699005
67.26438060030341,-0.04065202921628952,0.16635671257972717,9.798757553100586,7.763291023366037e-07,5.754413905378897e-06,0.03526455909013748
67.30542229861021,0.014505341649055481,0.17997945845127106,9.806855201721191,-3.8627933918178314e-07,6.12169606029056e-06,0.03524971753358841
67.34614699706435,0.011641556397080421,0.2520025074481964,9.80768871307373,-1.4311366385300062e-06,5.399248493631603e-06,0.03522656485438347
67.38673929870129,-0.0020742230117321014,0.1903262585401535,9.80797004699707,-4.959753141520196e-07,6.415087682398735e-06,0.03520875796675682
67.42603619769216,-0.005561305209994316,0.145758718252182,9.769347190856934,5.76894854020793e-06,4.761976015288383e-06,0.03526643291115761
67.46540599688888,0.0088853994384408,0.20739737153053284,9.829671859741211,2.562963800301077e-06,6.2195244936447125e-06,0.03526699170470238
67.50667160004377,0.011897322721779346,0.13532941043376923,9.857759475708008,-3.2466159609612077e-06,5.397722816269379e-06,0.035201795399188995
67.54756989702582,0.012088246643543243,0.13530242443084717,9.798239707946777,1.9244278064434184e-06,6.088494956202339e-06,0.03522958606481552
67.58594369888306,0.016266636550426483,0.1798235923051834,9.768830299377441,-6.096086053730687e-07,5.77092350795283e-06,0.035216208547353745
67.62560509890318,0.010045850649476051,0.20734292268753052,9.814395904541016,-2.6178915959462756e-06,6.1422902035701554e-06,0.035194091498851776
67.66667519882321,-0.05299266427755356,0.10541275888681412,9.859950065612793,-1.4626346001023194e-07,6.067644790164195e-06,0.0351824052631855
67.7083179987967,0.021224524825811386,0.224276602268219,9.793187141418457,-9.461726222070865e-06,6.236856279429048e-06,0.03509586304426193
67.74762919917703,-0.01663520187139511,0.20092818140983582,9.768424034118652,-6.336934347928036e-06,5.85967109145713e-06,0.03505199775099754
67.78945089876652,0.00491815060377121,0.23485100269317627,9.857629776000977,-1.8451339656166965e-07,5.814139967696974e-06,0.03505134582519531
67.829579398036,-0.011681480333209038,0.24548882246017456,9.80693244934082,6.539558853546623e-06,5.833347131556366e-06,0.0350930392742157
67.87030169740319,-0.003308209590613842,0.1458268016576767,9.798664093017578,4.318499122746289e-06,5.480968411575304e-06,0.03509936481714249
67.91034539788961,-0.03689763695001602,0.16724087297916412,9.808758735656738,6.800182745791972e-06,6.252262664929731e-06,0.035153236240148544
67.95092459768057,-0.001312906388193369,0.07374902814626694,9.80459976196289,4.8179031182371546e-06,6.2661424635734875e-06,0.0351518876850605
67.99091709777713,0.014168060384690762,0.13509157299995422,9.766623497009277,-5.813394636788871e-06,5.952629180683289e-06,0.03507551550865173
68.0311248973012,-0.014647306874394417,0.20111028850078583,9.87770938873291,2.344193489989266e-06,5.9453286667121574e-06,0.03510693460702896
68.06994180008769,-0.01913396641612053,0.15664292871952057,9.76104736328125,4.0640020415594336e-07,6.005120212648762e-06,0.03510181978344917
68.11152939870954,-0.012904994189739227,0.12904641032218933,9.854972839355469,-1.1896577234438155e-07,6.331089934974443e-06,0.03508792072534561
68.15105929970741,0.03064311295747757,0.19626526534557343,9.7648286819458,-9.416487046109978e-06,5.268428594717989e-06,0.03500228747725487
68.19110709801316,-0.0016824379563331604,0.14586953818798065,9.86722469329834,-2.4810381091810996e-06,5.891988166695228e-06,0.034992318600416183
68.22930229827762,0.009397114627063274,0.16262935101985931,9.759256362915039,2.612978278193623e-06,5.632190095639089e-06,0.03502696007490158
68.2701660990715,-0.018822502344846725,0.22889204323291779,9.851012229919434,1.1636122962954687e-06,5.919075647398131e-06,0.03500034660100937
68.30889139696956,-0.012706836685538292,0.201227068901062,9.76445198059082,2.2018663003109396e-05,6.176846909511369e-06,0.03520069271326065
68.35033539682627,0.04296587407588959,0.21279749274253845,9.853469848632812,-2.2541487396665616e-06,5.997415883030044e-06,0.035083916038274765
68.38998559862375,-0.06227981299161911,0.23421500623226166,9.762871742248535,-9.090883850149112e-07,5.6603062148496974e-06,0.03509264811873436
68.42843569815159,0.021530885249376297,0.1792781949043274,9.832630157470703,-1.3179067082091933e-06,5.96230984228896e-06,0.035079292953014374
68.46929319947958,0.016408061608672142,0.1348530650138855,9.846626281738281,-7.232729331008159e-07,6.232459782040678e-06,0.03506603464484215
68.50973599776626,-0.05568781867623329,0.20675979554653168,9.79642391204834,-6.522168405354023e-07,6.205518275237409e-06,0.03505805879831314
68.55122929811478,0.011216260492801666,0.16252747178077698,9.796384811401367,8.727943168196362e-08,5.818498721055221e-06,0.0350424125790596
68.59007639810443,0.028101099655032158,0.22351355850696564,9.774663925170898,-8.64938829181483e-06,5.407021035352955e-06,0.03496071323752403
68.63122709840536,-0.021706542000174522,0.11264060437679291,9.85952377319336,-2.801422169795842e-06,5.716497980756685e-06,0.034960534423589706
68.6724813990295,0.02328607253730297,0.2511900067329407,9.800893783569336,2.97528640658129e-06,5.77363744014292e-06,0.03498713672161102
68.7128058001399,0.01212579756975174,0.16245995461940765,9.80905532836914,-4.4476637413026765e-06,6.081298579374561e-06,0.03492166846990585
68.7533312998712,0.012353206053376198,0.16244228184223175,9.804654121398926,-3.6057442684978014e-06,6.049290732335066e-06,0.03489350154995918
68.79388979822397,0.007244551554322243,0.190206840634346,9.808065414428711,2.297519131388981e-05,6.256332653720165e-06,0.03511754795908928
68.83407759666443,-0.009676873683929443,0.1293317675590515,9.810490608215332,-2.354658136027865e-06,5.710948244086467e-06,0.03499528020620346
68.87604989856482,-0.004231996834278107,0.10155348479747772,9.802087783813477,1.505543423263589e-08,5.645655619446188e-06,0.035006169229745865
68.91621460020542,0.008052626624703407,0.19017735123634338,9.820594787597656,-1.1727365745173302e-08,5.641693860525265e-06,0.03499682992696762
68.9562836997211,-0.0039513446390628815,0.10156159847974777,9.808542251586914,-6.7672558543563355e-06,5.580022843787447e-06,0.03493082523345947
68.99669089913368,-0.0016979482024908066,0.24577386677265167,9.80750846862793,-4.008486939710565e-06,6.3011366364662535e-06,0.034909751266241074
69.03602789714932,-0.007620908319950104,0.20148855447769165,9.769877433776855,-3.1461620437767124e-06,5.704238446924137e-06,0.0348982959985733
69.07634699717164,-0.0035306131467223167,0.10158912092447281,9.872016906738281,2.6594298105919734e-06,7.141376045183279e-06,0.03492753580212593
69.11756590008736,-0.007050907239317894,0.20151479542255402,9.796972274780273,2.725214926613262e-06,6.0933170971111394e-06,0.034924741834402084
69.15745369717479,0.021068135276436806,0.20650368928909302,9.76698112487793,-4.570314104057616e-06,6.194267825776478e-06,0.03486684709787369
69.19799469783902,-0.021065834909677505,0.04096235707402229,9.871949195861816,1.915825350806699e-06,5.833870091009885e-06,0.034889835864305496
69.23841589689255,0.021647825837135315,0.20644935965538025,9.798221588134766,4.30100681114709e-06,5.8328150771558285e-06,0.03491126373410225
69.27910849824548,-0.033786386251449585,0.19668802618980408,9.801737785339355,5.65179448130948e-07,5.845704890816705e-06,0.03490225598216057
69.32015949860215,-0.005637051537632942,0.20156292617321014,9.804937362670898,6.006296644045506e-06,5.88759303354891e-06,0.03493737056851387
69.36181399971247,-0.016891706734895706,0.1852407306432724,9.806571006774902,1.0493961326574208e-06,6.16756778981653e-06,0.03493575379252434
69.40211409702897,0.01125030592083931,0.19001224637031555,9.816252708435059,-2.133124326064717e-07,5.738627351092873e-06,0.03492269665002823
69.4429385997355,-0.03737606853246689,0.22477033734321594,9.80549430847168,-5.94731000091997e-06,5.638556103804149e-06,0.03486203774809837
69.48368699848652,-0.032392457127571106,0.19692769646644592,9.810127258300781,-4.167640327068511e-06,5.241091457719449e-06,0.03484019264578819
69.52224319800735,0.02367488294839859,0.2062237709760666,9.775589942932129,3.6914798329235055e-07,6.3866864365991205e-06,0.03486774116754532
69.56297110021114,-0.006422717124223709,0.1295471340417862,9.862153053283691,7.361934422078775e-07,5.658356712956447e-06,0.03486572951078415
69.60612829774618,0.0242735855281353,0.2061573565006256,9.7927885055542,6.407808541553095e-07,5.687696557288291e-06,0.03486343100667
69.64484449848533,-0.052021440118551254,0.23673292994499207,9.78682804107666,-1.7734471384756034e-06,6.092925104894675e-06,0.03484960272908211
69.68484519794583,0.013107646256685257,0.18990258872509003,9.861854553222656,4.7834978431637865e-06,5.6727863011474255e-06,0.03487858176231384
69.72588419914246,0.03841995447874069,0.1222502589225769,9.79331111907959,5.068663540441776e-06,6.370637947838986e-06,0.034900035709142685
69.76640389859676,0.01803298108279705,0.16191482543945312,9.807182312011719,-2.61937134382606e-06,5.567928837990621e-06,0.034848690032958984
69.8051551990211,-0.06994697451591492,0.1767706573009491,9.769691467285156,-3.109648332610959e-06,5.998217602609657e-06,0.03483736142516136
69.84650800004601,0.05394170433282852,0.21027356386184692,9.858952522277832,1.1416891538829077e-06,5.619314833893441e-06,0.03485050052404404
69.88524840027094,0.00257779099047184,0.17367547750473022,9.770137786865234,-1.8508130779082421e-06,5.615937880065758e-06,0.03481501340866089
69.92581029981375,-0.012433533556759357,0.08555503934621811,9.858566284179688,7.184785317804199e-07,5.946645160292974e-06,0.03482678160071373
69.96644819900393,0.007261589169502258,0.1457017958164215,9.798209190368652,3.0659371077490505e-06,5.972521194053115e-06,0.03484345227479935
70.00696759670973,0.011060813441872597,0.2177140712738037,9.803827285766602,2.388713028267375e-06,6.337048944260459e-06,0.03483924642205238
70.04675289988518,-0.007964053191244602,0.05761432647705078,9.764058113098145,1.6384716218453832e-05,5.90715308135259e-06,0.03498319163918495
70.08788229897618,-0.040504977107048035,0.28155383467674255,9.869600296020508,-3.1206327548716217e-06,6.12963185631088e-06,0.03488512337207794
70.1281073987484,0.032029613852500916,0.17769953608512878,9.804071426391602,-4.8208912630798295e-06,6.048670911695808e-06,0.034841667860746384
70.16915269941092,-0.01972038857638836,0.14165541529655457,9.799112319946289,-2.3924940251163207e-07,6.053211109247059e-06,0.034864284098148346
70.2085491977632,0.03662411868572235,0.24959836900234222,9.770237922668457,-2.1944515538052656e-07,6.1184864534880035e-06,0.034864142537117004
70.24965239688754,-0.05125728249549866,0.16581326723098755,9.865731239318848,-6.983973435126245e-07,5.687504653906217e-06,0.03483404219150543
70.29064209759235,0.000700976699590683,0.10165400803089142,9.801464080810547,-4.17179489886621e-06,5.613181201624684e-06,0.034792959690093994
70.32967759668827,0.01292584091424942,0.11757991462945938,9.76854133605957,8.066690497798845e-07,5.7238144108850975e-06,0.03482012078166008
70.36867539957166,0.017588051036000252,0.18954268097877502,9.826434135437012,2.0548293377942173e-07,6.122314516687766e-06,0.034819345921278
70.40971729904413,-0.073769211769104,0.23429542779922485,9.854070663452148,-9.587781732989242e-07,6.395813670678763e-06,0.03480026498436928
70.45061029866338,-0.03422905504703522,0.15400104224681854,9.796622276306152,1.5291795989469392e-06,5.684026746166637e-06,0.03481006249785423
70.48972299695015,0.018377412110567093,0.1894577145576477,9.764932632446289,8.34724232845474e-07,6.418242264771834e-06,0.034802794456481934
70.53026629984379,-0.016696061939001083,0.24189850687980652,9.86309814453125,4.461939170141704e-06,5.345052159100305e-06,0.03483353555202484
70.56913749873638,0.022504959255456924,0.1613532155752182,9.761281967163086,1.5987056940502953e-06,6.093550382502144e-06,0.034821510314941406
70.61125329881907,-0.017562253400683403,0.14195537567138672,9.851716995239258,2.267907802888658e-06,6.431022939068498e-06,0.034839287400245667
70.65257939696312,-0.00509362667798996,0.15776821970939636,9.804670333862305,-2.1595885755232302e-06,5.696754669770598e-06,0.03479589894413948
70.73379629850388,0.005443790927529335,0.16258348524570465,9.796648025512695,2.9261207146191737e-07,5.44299473403953e-06,0.03479517251253128
70.78475539758801,0.0017947591841220856,0.1656632125377655,9.820158004760742,-2.2509702830575407e-06,5.72893532080343e-06,0.03475073352456093
70.82584399729967,-0.019873877987265587,0.17016194760799408,9.81092643737793,4.044577508466318e-06,5.760970907431329e-06,0.034790582954883575
70.86620269715786,0.005133083090186119,0.20159688591957092,9.807437896728516,7.125689080567099e-06,5.768839855591068e-06,0.0348171703517437
70.90412160009146,-0.019415894523262978,0.17020979523658752,9.77303695678711,3.1176546144706663e-06,5.817414148623357e-06,0.03481506556272507
70.94484239816666,0.02783447504043579,0.13296693563461304,9.854997634887695,4.3202021515753586e-07,5.780539595434675e-06,0.03480301797389984
70.98430179804564,0.028012000024318695,0.1329134702682495,9.762968063354492,-2.7935022899328033e-06,5.843075086886529e-06,0.034778792411088943
71.02356699854136,-0.009407702833414078,0.2140418291091919,9.828386306762695,1.872318080131663e-06,6.2592453105025925e-06,0.03479422628879547
71.06212189793587,-0.02785301022231579,0.12659412622451782,9.823671340942383,-1.8355822248850018e-06,5.844733550475212e-06,0.03477649390697479
71.10115169733763,0.03797050565481186,0.1765245944261551,9.809174537658691,2.328178652533097e-06,5.817449164169375e-06,0.03478232026100159
71.14235019683838,0.013151077553629875,0.1453087031841278,9.847017288208008,1.563764271850232e-06,6.019713964633411e-06,0.03477444127202034
71.18244810029864,0.0354546420276165,0.20453906059265137,9.797115325927734,-1.2833907021558844e-06,5.5563318710483145e-06,0.034760378301143646
71.22181489691138,-0.020524699240922928,0.1985418051481247,9.755635261535645,4.700673343904782e-07,5.964509000477847e-06,0.03475651890039444
71.26023690029979,0.013738896697759628,0.14525219798088074,9.831871032714844,7.522082796640461e-07,5.645495548378676e-06,0.034769635647535324
71.30187029764056,-0.014188745990395546,0.1423420011997223,9.844461441040039,6.787473466829397e-06,6.026232767908368e-06,0.03482137247920036
71.34136739745736,-0.0013548079878091812,0.15784481167793274,9.762221336364746,9.603506896382896e-07,6.432481768570142e-06,0.03479659929871559
71.3803516998887,-0.0377325713634491,0.23947300016880035,9.825796127319336,5.426951474873931e-07,6.832503913756227e-06,0.03480000048875809
71.41932479664683,-0.0009296983480453491,0.15785762667655945,9.81534481048584,1.8849696061806753e-06,5.416797648649663e-06,0.03481556102633476
71.46048719808459,-0.010674731805920601,0.11426863074302673,9.847123146057129,1.6519951486770879e-06,6.3887609940138645e-06,0.03481968864798546
71.49964099749923,0.012233290821313858,0.17327764630317688,9.757110595703125,-6.237803518160945e-07,5.684548341378104e-06,0.03478974848985672
71.53927159681916,-0.0029380004853010178,0.1860203742980957,9.816484451293945,1.2522792758318246e-06,5.711921403417364e-06,0.03480406105518341
71.5793380998075,0.043495457619428635,0.14771968126296997,9.860600471496582,1.4851291325612692e-06,5.964358479104703e-06,0.03480130434036255
71.62083619832993,-0.04853590577840805,0.22440242767333984,9.784934997558594,-1.1559802715055412e-06,6.227728590602055e-06,0.03477666527032852
71.65991349890828,0.010648053139448166,0.20138007402420044,9.768619537353516,1.4169260111884796e-06,5.935586159466766e-06,0.03479262813925743
71.7009218968451,0.0287749283015728,0.16037125885486603,9.859683990478516,8.145666470227297e-07,5.879988293600036e-06,0.03479096293449402
71.74159839749336,-0.004103153944015503,0.21421262621879578,9.800389289855957,1.1566130524442997e-06,6.206227681104792e-06,0.03478699550032616
71.78193279728293,-0.0013824272900819778,0.18603889644145966,9.804545402526855,-2.266922365379287e-07,6.211090749275172e-06,0.03478086367249489
71.82305609807372,0.009399786591529846,0.22950753569602966,9.802694320678711,-4.294865902920719e-07,5.547317414311692e-06,0.03477269411087036
71.86868849769235,0.0015109404921531677,0.15785346925258636,9.792277336120605,2.267863692395622e-06,6.422999831556808e-06,0.0347897931933403
71.90998759865761,0.014683347195386887,0.17310306429862976,9.837501525878906,-1.1414563232392538e-06,5.715650786441984e-06,0.0347517728805542
71.95106159895658,0.004215274006128311,0.1296575963497162,9.806550025939941,1.3270573617774062e-06,5.730712928198045e-06,0.034759435802698135
71.99203869700432,-0.04978038743138313,0.09702152758836746,9.807318687438965,1.3981934898765758e-07,5.718325610359898e-06,0.03475850075483322
72.03314139693975,-0.001948341727256775,0.21424728631973267,9.807832717895508,3.7161607906455174e-06,5.698821951227728e-06,0.03477640822529793
72.07509079948068,0.004767673090100288,0.129644513130188,9.805996894836426,1.5279558283509687e-05,6.171368113427889e-06,0.0349116213619709
72.11770089715719,-0.003414880484342575,0.2424650639295578,9.809070587158203,-1.8500229543860769e-06,5.723490176023915e-06,0.034818921238183975
72.15979429706931,-0.034091509878635406,0.08423452824354172,9.814505577087402,-5.259107638266869e-06,6.356697667797562e-06,0.03477751836180687
72.20080889761448,0.029517434537410736,0.18805673718452454,9.814610481262207,9.05979845811089e-07,5.6525154832343105e-06,0.03479965776205063
72.24026979878545,0.0035295672714710236,0.15782056748867035,9.76956558227539,-1.2695738860202255e-06,5.7059341997955926e-06,0.03479646146297455
72.27936309948564,0.005678188055753708,0.12960846722126007,9.831841468811035,3.0841749776300276e-07,5.711861831514398e-06,0.034788843244314194
72.32158809900284,0.02651546150445938,0.24437974393367767,9.849237442016602,8.277656888822094e-07,6.338588718790561e-06,0.03478525951504707
72.36146639660001,-0.025888744741678238,0.1841793805360794,9.76391887664795,1.2580931070260704e-05,5.819362741021905e-06,0.034908320754766464
72.40195799991488,0.0007840469479560852,0.21427324414253235,9.865180969238281,5.369076916394988e-07,5.707915079256054e-06,0.03485272079706192
72.44098909944296,0.019623147323727608,0.14457033574581146,9.755701065063477,-3.0012593015271705e-06,6.417782515200088e-06,0.03483735769987106
72.48045539855957,-0.04011380299925804,0.19754262268543243,9.818155288696289,-1.2108584996894933e-06,5.657928340951912e-06,0.03482931852340698
72.51967519894242,0.020016632974147797,0.14452755451202393,9.819486618041992,-6.33439185548923e-07,5.599802534561604e-06,0.034827183932065964
72.56070859730244,0.030195141211152077,0.2159222513437271,9.84933090209961,1.6683879948686808e-06,4.774362878379179e-06,0.03482368215918541
72.60274989902973,-0.007808862254023552,0.14284813404083252,9.788191795349121,1.0224140396530856e-06,6.482783646788448e-06,0.034824542701244354
72.64414639770985,-0.007604900747537613,0.14286242425441742,9.804723739624023,-3.016631808350212e-06,5.726300969399745e-06,0.03478826954960823
72.68497179821134,0.005949404090642929,0.15776289999485016,9.80676555633545,1.566414312037523e-06,6.122376362327486e-06,0.034801751375198364
72.72632639855146,-0.0220707505941391,0.15625914931297302,9.803763389587402,-7.899852789705619e-07,6.2026138039072976e-06,0.034781213849782944
72.76632799953222,0.0049367621541023254,0.1859995275735855,9.814628601074219,1.4455245946010109e-05,6.061921340005938e-06,0.03492000326514244
72.80853419750929,-0.008209731429815292,0.17115826904773712,9.798200607299805,4.4190505832375493e-07,6.035705155227333e-06,0.03486252948641777
72.8474324978888,-0.025544438511133194,0.24110645055770874,9.783770561218262,-1.205904936796287e-06,6.075412329664687e-06,0.034848086535930634
72.88652800023556,0.023178672417998314,0.11601737141609192,9.827177047729492,-2.4060657324298518e-06,6.484605364676099e-06,0.03483579307794571
72.92783679813147,-0.00620688870549202,0.1429472118616104,9.855076789855957,-3.959462446800899e-08,6.089102498663124e-06,0.034823931753635406
72.96653539687395,-0.007277190685272217,0.17119677364826202,9.765047073364258,4.899497980659362e-07,5.8063437791133765e-06,0.0348295234143734
73.00729990005493,-0.020553860813379288,0.156484454870224,9.85448169708252,1.8868167899199761e-06,5.781341769761639e-06,0.03482947126030922
73.04800719767809,0.009101936593651772,0.12942247092723846,9.797408103942871,1.8520727280701976e-06,5.747760951635428e-06,0.03482777625322342
73.08936819806695,-0.0031386520713567734,0.08644931018352509,9.800074577331543,-2.356437562411884e-06,6.490266514447285e-06,0.0348055362701416
73.13103589788079,-0.008497238159179688,0.22777029871940613,9.806258201599121,-1.330810846411623e-06,5.503823103936156e-06,0.03479250892996788
73.17177379876375,0.009652838110923767,0.12938593327999115,9.813230514526367,1.04135710898845e-06,6.898590527271153e-06,0.03480391949415207
73.21043580025434,-0.006854742765426636,0.19952206313610077,9.7727689743042,4.2587325879139826e-06,5.919304840062978e-06,0.03482858091592789
73.24871649965644,-0.03289543837308884,0.1420261561870575,9.830342292785645,4.610953055816935e-06,5.59152067580726e-06,0.03484886884689331
73.29021409898996,0.02384541556239128,0.1439560502767563,9.847359657287598,1.7663073776930105e-06,5.502235126186861e-06,0.03485061228275299
73.33066859841347,-0.03339482471346855,0.17038574814796448,9.803655624389648,2.94080837193178e-06,6.130531801318284e-06,0.03485562279820442
73.37047969922423,0.03708583116531372,0.18671151995658875,9.758915901184082,2.6174848244409077e-07,6.145644420030294e-06,0.034851476550102234
73.41195119917393,-0.019188571721315384,0.1850370317697525,9.865792274475098,3.054419721593149e-07,6.057054633856751e-06,0.0348384790122509
73.4527009986341,-0.005182914435863495,0.19958023726940155,9.802433967590332,4.09820131608285e-07,6.416000815079315e-06,0.03484342247247696
73.49153869971633,-0.0026924721896648407,0.11475770175457001,9.76682186126709,-2.9701814128202386e-06,6.079950253479183e-06,0.03482232242822647
73.5319354981184,0.025043414905667305,0.1437549591064453,9.862052917480469,1.8907610410678899e-06,5.696756488760002e-06,0.03482989966869354
73.57314279675484,0.04037497192621231,0.10162357985973358,9.795439720153809,-3.5273774301458616e-07,6.407392902474385e-06,0.034818027168512344
73.61398829892278,-0.0034504346549510956,0.17133106291294098,9.806918144226074,1.935428144861362e-06,6.0544575717358384e-06,0.03482663258910179
73.65463709831238,-0.002048555761575699,0.11478489637374878,9.807744979858398,1.445103953301441e-05,6.216847850737395e-06,0.034962598234415054
73.69580219686031,-0.03178500384092331,0.19908522069454193,9.805683135986328,-1.957819222297985e-06,5.707255695597269e-06,0.034879814833402634
73.73429000005126,0.03892774134874344,0.2145182490348816,9.778493881225586,-5.123370101500768e-07,5.718436113966163e-06,0.03487640619277954
73.77580219879746,0.026250258088111877,0.14354360103607178,9.856741905212402,-1.8531616206018953e-06,5.965856871625874e-06,0.034866832196712494
73.81742779910564,-0.01617727056145668,0.15700726211071014,9.803545951843262,-1.975502982531907e-06,5.572795998887159e-06,0.03484763577580452
73.85664039850235,-0.031441740691661835,0.25581955909729004,9.772754669189453,-1.276472858080524e-06,6.316636245173868e-06,0.03483862057328224
73.89684609696269,0.025823064148426056,0.22828111052513123,9.866575241088867,1.916068868013099e-06,5.938882168265991e-06,0.03485211730003357
73.93575949966908,-0.04382073134183884,0.1567627340555191,9.759199142456055,9.086966201721225e-08,6.007664524076972e-06,0.034847527742385864
73.974867798388,0.026967482641339302,0.17163723707199097,9.822275161743164,1.8700586679187836e-06,6.418602879421087e-06,0.03485491871833801
74.01537239924073,-0.05764186754822731,0.1709301918745041,9.856446266174316,2.545752522564726e-06,6.391401257133111e-06,0.03485594689846039
74.0583014972508,-0.0011888369917869568,0.22793714702129364,9.784505844116211,-3.018512870767154e-07,4.951440132572316e-06,0.034841522574424744
74.09948759898543,0.013492446392774582,0.1855943202972412,9.813446998596191,1.3880821825296152e-05,6.226377990969922e-06,0.034974947571754456
74.14041959866881,-0.0005394481122493744,0.2279491275548935,9.805052757263184,-3.0073099424043903e-06,6.189391569932923e-06,0.03490337356925011
74.1790403984487,-0.028202127665281296,0.0864599272608757,9.7724027633667,-1.2999419141124235e-06,5.5136551964096725e-06,0.034900765866041183
74.21763509884477,-0.01408407837152481,0.2420835942029953,9.826602935791016,-1.6852277440193575e-07,5.517493264051154e-06,0.03489474207162857
74.2573366984725,0.0003563538193702698,0.17138323187828064,9.812126159667969,-1.8248440483148443e-06,5.869459073437611e-06,0.034893933683633804
74.30177149921656,0.0146760493516922,0.12893281877040863,9.841706275939941,1.0210590062342817e-06,5.827561835758388e-06,0.03489680960774422
74.34249329939485,0.0008609406650066376,0.17138297855854034,9.816400527954102,2.281247589053237e-06,5.426457846624544e-06,0.034896526485681534
74.38458059728146,0.0008307527750730515,0.11480976641178131,9.79123306274414,-3.9350902625301387e-07,6.157282768981531e-06,0.0348842591047287
74.42686919867992,-0.012690890580415726,0.18561097979545593,9.804977416992188,-3.196064426447265e-07,6.146907253423706e-06,0.034879013895988464
